pid,block,trial,keypress,rt,ori,stim,fstim,fam,cond,acc,rt_OSF
2,1,1,q,0.6973037499992643,3,7,7,1,Learned,1,yes
2,1,2,p,1.4152120420003484,1,112,49,0,Novel,1,yes
2,1,3,p,1.0912334999993618,3,37,116,0,Novel,1,yes
2,1,4,q,0.8524319579992152,3,49,22,1,Learned,1,yes
2,1,5,p,1.2431340420007473,3,108,153,0,Novel,1,yes
2,1,6,q,1.0019867500013788,1,116,79,1,Learned,1,yes
2,1,7,p,1.1902042500005336,1,14,139,0,Novel,1,yes
2,1,8,q,1.062363707998884,3,22,68,1,Learned,1,yes
2,1,9,q,0.8615197920007631,3,153,122,1,Learned,1,yes
2,1,10,p,1.7152999999998428,3,1,72,0,Novel,1,yes
2,1,11,p,1.2287115000035556,2,16,100,0,Novel,1,yes
2,1,12,q,0.77694849999898,1,79,11,1,Learned,1,yes
2,1,13,p,0.8438175000010233,3,17,93,0,Novel,1,yes
2,1,14,p,0.8892485420001321,1,29,9,0,Novel,1,yes
2,1,15,p,0.8998147919992334,2,4,45,0,Novel,1,yes
2,1,16,p,1.0979628749992116,1,39,33,0,Novel,1,yes
2,1,17,p,1.038757041998906,1,139,76,1,Learned,0,yes
2,1,18,p,1.780904457998986,1,113,120,0,Novel,1,yes
2,1,19,q,0.8110492920022807,3,68,141,1,Learned,1,yes
2,1,21,q,0.8324975830000767,1,72,43,1,Learned,1,yes
2,1,24,p,0.929856207996636,2,19,25,0,Novel,1,yes
2,1,25,p,1.1030049580003831,2,11,132,1,Learned,0,yes
2,1,26,q,0.7351983330008807,1,93,27,1,Learned,1,yes
2,1,27,p,1.2882437500011292,2,109,110,0,Novel,1,yes
2,1,28,p,0.9451288330019452,1,36,62,0,Novel,1,yes
2,1,29,p,0.8360522500006482,2,32,114,0,Novel,1,yes
2,1,30,q,0.8538640829974611,1,9,18,1,Learned,1,yes
2,1,31,p,0.984659041001578,3,20,7,0,Novel,1,yes
2,1,32,p,0.98353170900009,1,104,49,0,Novel,1,yes
2,1,33,p,0.7477670410007704,3,23,116,0,Novel,1,yes
2,1,34,p,0.9453067079994072,2,107,22,0,Novel,1,yes
2,1,35,p,2.077381916999002,1,12,153,0,Novel,1,yes
2,1,36,p,1.6087557079990802,3,111,79,0,Novel,1,yes
2,1,37,p,0.995993291002378,2,115,139,0,Novel,1,yes
2,1,38,p,1.4749162920015806,2,45,68,1,Learned,0,yes
2,1,39,q,1.5413036669997382,1,33,122,1,Learned,1,yes
2,1,40,p,1.5285830829998304,3,76,72,1,Learned,0,yes
2,1,41,p,1.0898942920030097,3,38,100,0,Novel,1,yes
2,1,42,q,1.1711878330024774,1,120,11,1,Learned,1,yes
2,1,44,p,1.169413457999326,2,117,9,1,Learned,0,yes
2,1,45,p,1.3341901250023511,1,43,45,1,Learned,0,yes
2,1,46,p,0.8873400000011316,1,30,33,0,Novel,1,yes
2,1,47,p,1.819654291997722,1,13,76,0,Novel,1,yes
2,1,48,p,1.2532291669995177,1,106,120,0,Novel,1,yes
2,1,50,q,2.3548056250001537,3,28,117,1,Learned,1,yes
2,1,51,p,0.9990581249985552,3,21,43,0,Novel,1,yes
2,1,52,q,1.048962874996505,3,25,26,1,Learned,1,yes
2,1,53,p,1.781152249997831,3,2,28,0,Novel,1,yes
2,1,54,p,1.978389625001,1,132,25,1,Learned,0,yes
2,1,55,q,2.3167284590017516,1,27,132,1,Learned,1,yes
2,1,56,q,1.1282401669996034,1,110,27,1,Learned,1,yes
2,1,57,p,1.5481807090000077,2,10,110,0,Novel,1,yes
2,1,58,q,1.2214742919968558,3,62,62,1,Learned,1,yes
2,1,59,p,1.1741520420000595,3,114,114,1,Learned,0,yes
2,2,1,q,0.8024001250014408,3,27,7,1,Learned,1,yes
2,2,2,p,1.7575128329990548,1,7,49,1,Learned,0,yes
2,2,4,p,0.8371604589992785,3,129,22,0,Novel,1,yes
2,2,5,p,0.9695380419980212,1,50,153,0,Novel,1,yes
2,2,6,p,1.2153333330024907,3,71,79,0,Novel,1,yes
2,2,7,p,0.9218608340015636,1,128,139,0,Novel,1,yes
2,2,8,q,1.183667291999882,3,79,68,1,Learned,1,yes
2,2,9,p,0.981732624997676,3,52,122,0,Novel,1,yes
2,2,10,q,1.409959999997227,3,139,72,1,Learned,1,yes
2,2,11,q,1.2097942079999484,2,28,100,1,Learned,1,yes
2,2,13,p,1.7411734589986736,1,100,93,1,Learned,0,yes
2,2,14,q,0.83598287499989965,1,25,9,1,Learned,1,yes
2,2,15,p,1.0144151669992425,2,59,45,0,Novel,1,yes
2,2,16,p,1.7908337080007186,3,120,33,1,Learned,0,yes
2,2,17,p,0.8474823750002543,3,73,76,0,Novel,1,yes
2,2,18,p,1.269218584002374,1,41,120,0,Novel,1,yes
2,2,19,p,1.3746940409982926,3,51,141,0,Novel,1,yes
2,2,20,q,0.8711263339973812,2,141,117,1,Learned,1,yes
2,2,21,p,1.2690456660020573,2,47,43,0,Novel,1,yes
2,2,22,p,1.6332939589992748,2,76,26,1,Learned,0,yes
2,2,24,p,1.4744333750022631,2,22,25,1,Learned,0,yes
2,2,25,p,2.0841274590020475,1,70,132,0,Novel,1,yes
2,2,26,p,2.3912174590004724,2,56,27,0,Novel,1,yes
2,2,27,p,0.8577052910004568,2,130,110,0,Novel,1,yes
2,2,28,p,0.7243812500018976,1,42,62,0,Novel,1,yes
2,2,30,p,0.964557084000262,1,117,18,1,Learned,0,yes
2,2,31,q,1.475471917001414,1,122,7,1,Learned,1,yes
2,2,32,q,0.8026927920000162,1,62,49,1,Learned,1,yes
2,2,34,q,0.9739614999998594,3,132,22,1,Learned,1,yes
2,2,35,p,2.229974541998672,3,118,153,0,Novel,1,yes
2,2,36,p,0.9511195840022992,1,131,79,0,Novel,1,yes
2,2,37,p,1.6508512499967765,1,64,139,0,Novel,1,yes
2,2,38,p,0.9944808330001252,2,69,68,0,Novel,1,yes
2,2,39,p,1.2392201670008944,1,57,122,0,Novel,1,yes
2,2,40,p,0.7887531670021417,2,67,72,0,Novel,1,yes
2,2,42,q,1.458264249999047,3,45,11,1,Learned,1,yes
2,2,43,p,1.2078846249969502,3,43,93,1,Learned,0,yes
2,2,45,p,1.933487292000791,3,61,45,0,Novel,1,yes
2,2,47,p,0.8332088749994,1,119,76,0,Novel,1,yes
2,2,48,q,2.2265214580002066,2,68,120,1,Learned,1,yes
2,2,49,p,1.1377443750025122,1,125,141,0,Novel,1,yes
2,2,50,p,1.067309166999621,1,44,117,0,Novel,1,yes
2,2,51,p,0.9792471250002563,1,53,43,0,Novel,1,yes
2,2,52,p,1.181186625002738,2,66,26,0,Novel,1,yes
2,2,53,p,0.7480734160017164,2,114,28,1,Learned,0,yes
2,2,54,p,1.9858369169996877,2,60,25,0,Novel,1,yes
2,2,55,p,0.8088309170016146,2,126,132,0,Novel,1,yes
2,2,56,p,2.1381219159993634,3,123,27,0,Novel,1,yes
2,2,57,q,1.0286752089996298,3,26,110,1,Learned,1,yes
2,2,58,q,1.269905707998987,2,33,62,1,Learned,1,yes
2,2,59,q,1.8137771250003425,3,72,114,1,Learned,1,yes
2,3,1,p,1.5283167499983392,3,134,7,0,Novel,1,yes
2,3,2,q,0.8536372499984282,3,9,49,1,Learned,1,yes
2,3,3,q,1.0211483340026462,1,28,116,1,Learned,1,yes
2,3,4,q,1.1799739580019375,2,26,22,1,Learned,1,yes
2,3,5,q,2.236260999998194,2,25,153,1,Learned,1,yes
2,3,6,p,1.93808891700246,3,77,79,0,Novel,1,yes
2,3,7,p,0.9415130839988706,3,143,139,0,Novel,1,yes
2,3,8,p,1.2153499169980932,2,79,68,1,Learned,0,yes
2,3,9,p,1.135712125000282,1,45,122,1,Learned,0,yes
2,3,10,p,0.8288152909990458,2,88,72,0,Novel,1,yes
2,3,11,p,1.385657375001756,2,27,100,1,Learned,0,yes
2,3,12,p,0.8963595830027771,2,82,11,0,Novel,1,yes
2,3,13,p,1.1264041249996808,1,84,93,0,Novel,1,yes
2,3,14,p,0.7613151669975196,2,92,9,0,Novel,1,yes
2,3,15,p,1.0095425830004388,3,97,45,0,Novel,1,yes
2,3,16,p,1.0108436659975268,3,144,33,0,Novel,1,yes
2,3,17,p,0.757835749998776,3,75,76,0,Novel,1,yes
2,3,18,p,0.8367242080021242,2,7,120,1,Learned,0,yes
2,3,19,p,1.353677333001542,2,132,141,1,Learned,0,yes
2,3,20,q,1.6844235829994432,2,43,117,1,Learned,1,yes
2,3,21,p,0.9852666669976315,1,76,43,1,Learned,0,yes
2,3,22,p,1.085509207998257,3,87,26,0,Novel,1,yes
2,3,23,p,1.058622500000638,3,83,28,0,Novel,1,yes
2,3,24,p,1.1366088750000929,3,89,25,0,Novel,1,yes
2,3,25,p,1.2491797919974488,3,95,132,0,Novel,1,yes
2,3,26,p,1.0682233750012529,2,139,27,1,Learned,0,yes
2,3,27,p,0.83400624999922,1,74,110,0,Novel,1,yes
2,3,28,p,0.9031093749981663,1,114,62,1,Learned,0,yes
2,3,29,p,0.8420551669987617,2,49,114,1,Learned,0,yes
2,3,30,p,2.4976654999991297,3,100,18,1,Learned,0,yes
2,3,31,p,0.8546639580017654,1,138,7,0,Novel,1,yes
2,3,32,q,1.3018264580023242,2,62,49,1,Learned,1,yes
2,3,33,q,1.3344619999988936,2,153,116,1,Learned,1,yes
2,3,35,p,0.7732702909997897,3,142,153,0,Novel,1,yes
2,3,36,q,1.0285436670019408,3,141,79,1,Learned,1,yes
2,3,37,q,1.6953829579979356,2,110,139,1,Learned,1,yes
2,3,38,p,0.7984160839987453,3,116,68,1,Learned,0,yes
2,3,39,p,0.9475084580008116,3,91,122,0,Novel,1,yes
2,3,40,p,0.8117427920005866,1,136,72,0,Novel,1,yes
2,3,41,p,0.7482149169991317,2,101,100,0,Novel,1,yes
2,3,42,p,1.3271382500024629,1,94,11,0,Novel,1,yes
2,3,43,p,0.8206201249995502,1,145,93,0,Novel,1,yes
2,3,44,p,1.174368082996807,2,122,9,1,Learned,0,yes
2,3,45,p,2.1230411249998724,1,18,45,1,Learned,0,yes
2,3,46,p,0.9160840830008964,3,135,33,0,Novel,1,yes
2,3,47,p,1.1125577079983486,3,98,76,0,Novel,1,yes
2,3,48,p,0.7771956249998766,3,140,120,0,Novel,1,yes
2,3,49,p,1.8724018749999232,1,68,141,1,Learned,0,yes
2,3,50,p,0.927001999996719,1,90,117,0,Novel,1,yes
2,3,51,p,1.0646840419976795,2,81,43,0,Novel,1,yes
2,3,52,p,0.7473781669978052,3,11,26,1,Learned,0,yes
2,3,53,p,0.8032340410027246,3,78,28,0,Novel,1,yes
2,3,54,p,1.4969517499994254,2,120,25,1,Learned,0,yes
2,3,55,p,1.3052649160017609,3,117,132,1,Learned,0,yes
2,3,56,p,1.1179898749978747,2,72,27,1,Learned,0,yes
2,3,57,p,1.0821825419989182,3,146,110,0,Novel,1,yes
2,3,59,p,0.9797774170001504,3,93,114,1,Learned,0,yes
2,3,60,p,0.8494217919978837,3,80,18,0,Novel,1,yes
3,1,1,q,1.2260161669983063,3,95,95,1,Learned,1,yes
3,1,3,p,1.003334166998684,1,104,45,0,Novel,1,yes
3,1,4,p,1.4142072920003557,2,9,141,0,Novel,1,yes
3,1,5,p,1.246869707996666,1,20,118,1,Learned,0,yes
3,1,6,q,0.980086499999743,1,45,57,1,Learned,1,yes
3,1,7,p,2.148307916999329,3,11,128,0,Novel,1,yes
3,1,8,q,1.293746208997618,2,141,92,1,Learned,1,yes
3,1,9,p,1.1279372079952736,1,4,16,0,Novel,1,yes
3,1,10,p,1.8101702089988976,3,110,44,0,Novel,1,yes
3,1,11,q,0.9589667500040376,2,118,94,1,Learned,1,yes
3,1,12,q,1.3873119999989283,1,57,7,1,Learned,1,yes
3,1,13,p,1.0907189160061534,3,33,119,0,Novel,1,yes
3,1,14,p,1.3590142909961287,2,21,113,0,Novel,1,yes
3,1,15,p,1.3053514160055784,2,128,38,1,Learned,0,yes
3,1,16,q,1.5827592920031748,1,107,143,0,Novel,0,yes
3,1,17,p,1.0030125830016914,2,17,22,0,Novel,1,yes
3,1,19,p,0.9728266670063022,1,112,28,0,Novel,1,yes
3,1,20,p,1.909850167001423,2,14,13,0,Novel,1,yes
3,1,22,p,0.914415540995833,2,109,148,0,Novel,1,yes
3,1,23,q,0.9439398750037072,1,92,123,1,Learned,1,yes
3,1,24,q,1.0457516250025949,3,16,93,1,Learned,1,yes
3,1,25,p,2.068782750000537,1,111,83,0,Novel,1,yes
3,1,27,p,0.9485392909991788,3,36,106,0,Novel,1,yes
3,1,28,p,1.6769130829998176,2,94,124,1,Learned,0,yes
3,1,29,q,0.7883415420001256,2,7,37,1,Learned,1,yes
3,1,30,p,1.6157707079983084,1,30,50,0,Novel,1,yes
3,1,31,q,1.8797838330065133,1,119,95,1,Learned,1,yes
3,1,32,q,1.723436958003731,2,113,20,1,Learned,1,yes
3,1,33,p,1.5013067079999018,3,18,45,0,Novel,1,yes
3,1,34,q,1.841126416999032,3,29,141,0,Novel,0,yes
3,1,35,q,0.9306912079991888,2,38,118,1,Learned,1,yes
3,1,36,q,0.8597767089959234,3,143,57,1,Learned,1,yes
3,1,37,q,0.929409750002378,3,22,128,1,Learned,1,yes
3,1,38,q,0.7429775840064394,1,23,92,1,Learned,1,yes
3,1,39,p,1.0843588749994524,2,28,16,1,Learned,0,yes
3,1,40,p,1.9644686250030643,3,27,44,0,Novel,1,yes
3,1,41,p,1.016910584003199,3,114,94,0,Novel,1,yes
3,1,42,q,1.028146666998509,3,13,7,1,Learned,1,yes
3,1,43,q,0.8619576249984675,3,52,119,1,Learned,1,yes
3,1,44,p,1.1241212079985416,3,26,113,0,Novel,1,yes
3,1,45,q,1.269556499995815,3,148,38,1,Learned,1,yes
3,1,46,q,0.6896837500025867,3,25,143,0,Novel,0,yes
3,1,47,q,1.197678167001868,1,123,22,1,Learned,1,yes
3,1,48,q,0.6792793749991688,1,93,23,1,Learned,1,yes
3,1,49,q,0.6699512919949484,1,83,28,1,Learned,1,yes
3,1,50,q,0.664374083004077,1,77,13,1,Learned,1,yes
3,1,51,p,1.1412055830005556,2,32,52,0,Novel,1,yes
3,1,52,p,2.2830921670029056,2,106,148,1,Learned,0,yes
3,1,53,q,1.228618084001937,2,124,123,1,Learned,1,yes
3,1,54,p,2.167024834001495,3,37,93,1,Learned,0,yes
3,1,55,p,1.197363625004073,2,1,83,0,Novel,1,yes
3,1,56,q,1.1576254169995082,2,50,77,1,Learned,1,yes
3,1,57,q,1.7499967090043356,1,10,106,0,Novel,0,yes
3,1,58,p,1.6767303749948042,2,19,124,0,Novel,1,yes
3,1,59,p,0.8566883340026834,1,12,37,0,Novel,1,yes
3,1,60,p,1.1697905830005766,2,105,50,0,Novel,1,yes
3,2,1,q,0.989617624996754,1,106,95,1,Learned,1,yes
3,2,2,q,0.6964626670014695,3,93,20,1,Learned,1,yes
3,2,3,q,0.8966792919964064,3,113,45,1,Learned,1,yes
3,2,4,p,1.840478999998595,2,68,141,0,Novel,1,yes
3,2,6,p,1.0125898330006748,1,71,57,0,Novel,1,yes
3,2,7,q,1.1189532909993432,1,13,128,1,Learned,1,yes
3,2,8,q,0.9191910000008648,2,23,92,1,Learned,1,yes
3,2,9,p,1.2693335420044605,2,132,16,0,Novel,1,yes
3,2,10,p,1.5856487499986542,3,66,44,0,Novel,1,yes
3,2,11,p,1.196825415994681,3,67,94,0,Novel,1,yes
3,2,12,p,0.8901400419999845,2,116,7,0,Novel,1,yes
3,2,13,q,0.8668380409944803,3,57,119,1,Learned,1,yes
3,2,14,q,0.5970844590046909,2,117,113,0,Novel,0,yes
3,2,15,q,1.120694082994305,1,70,38,0,Novel,0,yes
3,2,16,q,0.6264365419992828,1,51,143,0,Novel,0,yes
3,2,17,p,1.4212603330015554,3,41,22,0,Novel,1,yes
3,2,18,p,0.9907837499995368,2,120,23,0,Novel,1,yes
3,2,19,p,1.2843230419966858,3,39,28,0,Novel,1,yes
3,2,20,p,1.0960487080010353,2,53,13,0,Novel,1,yes
3,2,21,q,1.0598071249987695,2,148,52,1,Learned,1,yes
3,2,22,q,0.8206662919983501,1,141,148,1,Learned,1,yes
3,2,23,q,1.6417280829991796,3,50,123,1,Learned,1,yes
3,2,24,q,1.1613348750033765,2,22,93,1,Learned,1,yes
3,2,25,q,1.1470894580052118,3,44,83,1,Learned,1,yes
3,2,26,q,0.8984300410011201,2,83,77,1,Learned,1,yes
3,2,27,q,0.6650063749984838,3,92,106,1,Learned,1,yes
3,2,28,p,1.5835013750038345,1,56,124,0,Novel,1,yes
3,2,29,q,0.851524875004543,3,45,37,1,Learned,1,yes
3,2,30,p,1.0579182080036844,2,62,50,0,Novel,1,yes
3,2,31,p,1.353540709002118,1,43,95,0,Novel,1,yes
3,2,32,q,1.163056792000134,1,37,20,1,Learned,1,yes
3,2,33,p,1.1080831669969484,3,69,45,0,Novel,1,yes
3,2,34,q,0.7168200000014622,3,77,141,1,Learned,1,yes
3,2,35,p,1.4903649589978158,3,20,118,1,Learned,0,yes
3,2,36,q,0.6448496669981978,1,7,57,1,Learned,1,yes
3,2,37,q,1.6862012920028064,1,52,128,1,Learned,1,yes
3,2,38,p,1.0166435000064666,3,94,92,1,Learned,0,yes
3,2,39,q,1.8527808750004624,2,143,16,1,Learned,1,yes
3,2,40,q,1.165767667000182,1,118,44,1,Learned,1,yes
3,2,41,p,0.9575246249951306,3,49,94,0,Novel,1,yes
3,2,42,q,1.877943667001091,1,61,7,0,Novel,0,yes
3,2,43,q,2.3100370000029216,2,123,119,1,Learned,1,yes
3,2,44,p,1.1942513749963837,3,125,113,0,Novel,1,yes
3,2,45,q,1.4532656669980497,2,16,38,1,Learned,1,yes
3,2,46,p,1.0930153750014142,1,129,143,0,Novel,1,yes
3,2,47,p,1.2119563330052188,3,28,22,1,Learned,0,yes
3,2,48,q,1.1346845000007306,1,124,23,1,Learned,1,yes
3,2,49,p,1.1586656250001397,1,59,28,0,Novel,1,yes
3,2,50,p,0.8854957499934244,2,130,13,0,Novel,1,yes
3,2,51,p,1.266571665997617,3,126,52,0,Novel,1,yes
3,2,52,p,1.1416460410036962,2,47,148,0,Novel,1,yes
3,2,53,p,0.8971462499976042,1,122,123,0,Novel,1,yes
3,2,54,q,1.2208098329938366,3,60,93,0,Novel,0,yes
3,2,55,p,1.0223342500030412,3,64,83,0,Novel,1,yes
3,2,56,p,1.1294611249977606,3,42,77,0,Novel,1,yes
3,2,57,q,1.6670894169947132,2,95,106,1,Learned,1,yes
3,2,58,q,1.017031916999258,1,38,124,1,Learned,1,yes
3,2,59,q,1.1594260830024723,3,119,37,1,Learned,1,yes
3,2,60,p,0.8427822500016191,2,131,50,0,Novel,1,yes
3,3,1,p,1.2061929580013384,3,91,95,0,Novel,1,yes
3,3,2,p,0.7821460830018623,3,140,20,0,Novel,1,yes
3,3,3,q,0.7484316249974654,1,113,45,1,Learned,1,yes
3,3,4,p,0.8445662500016624,1,82,141,0,Novel,1,yes
3,3,5,p,1.185222917003557,2,100,118,0,Novel,1,yes
3,3,6,p,0.7106790839970927,3,145,57,0,Novel,1,yes
3,3,7,q,1.0737167079932988,3,106,128,1,Learned,1,yes
3,3,8,q,0.8207850830003736,3,83,92,1,Learned,1,yes
3,3,9,q,1.6270989170006942,1,44,16,1,Learned,1,yes
3,3,10,q,2.4939528339964454,2,135,44,0,Novel,0,yes
3,3,11,p,1.6492143340001348,3,146,94,0,Novel,1,yes
3,3,12,p,1.086684084002627,2,101,7,0,Novel,1,yes
3,3,13,q,0.8826806670040241,1,148,119,1,Learned,1,yes
3,3,14,q,0.8211169999995036,2,77,113,1,Learned,1,yes
3,3,16,q,0.991809082996042,1,16,143,1,Learned,1,yes
3,3,17,q,0.9080483340003412,2,93,22,1,Learned,1,yes
3,3,18,q,1.0544511249972857,2,119,23,1,Learned,1,yes
3,3,19,q,0.7564236670004902,1,95,28,1,Learned,1,yes
3,3,20,p,1.1863387909979792,3,74,13,0,Novel,1,yes
3,3,21,p,1.3575245839965646,1,78,52,0,Novel,1,yes
3,3,22,p,0.8101759170021978,1,28,148,1,Learned,0,yes
3,3,23,q,1.627786290999211,2,57,123,1,Learned,1,yes
3,3,24,q,1.3746118330018362,3,123,93,1,Learned,1,yes
3,3,25,q,0.7542013749989565,2,13,83,1,Learned,1,yes
3,3,26,q,0.7323055419983575,2,52,77,1,Learned,1,yes
3,3,27,q,2.4365133330065873,3,38,106,1,Learned,1,yes
3,3,28,q,0.8809860420005862,3,124,124,1,Learned,1,yes
3,3,29,q,0.8814564589993097,3,141,37,1,Learned,1,yes
3,3,30,p,0.8701266669959296,1,88,50,0,Novel,1,yes
3,3,31,p,1.3289330420011538,1,98,95,0,Novel,1,yes
3,3,32,p,1.6254131669993512,2,20,20,1,Learned,0,yes
3,3,33,q,0.7733768329999293,1,143,45,1,Learned,1,yes
3,3,34,q,0.7239492500011693,1,50,141,1,Learned,1,yes
3,3,35,q,0.8533620000016526,3,23,118,1,Learned,1,yes
3,3,36,p,0.9807482910036924,3,76,57,0,Novel,1,yes
3,3,37,p,0.889717792000738,2,97,128,0,Novel,1,yes
3,3,38,q,1.0719602909957755,3,7,92,1,Learned,1,yes
3,3,39,q,1.1783511670000737,1,22,16,1,Learned,1,yes
3,3,40,p,2.2840843750018394,3,75,44,0,Novel,1,yes
3,3,41,p,0.7943747089957469,3,73,94,0,Novel,1,yes
3,3,42,p,1.214672291993338,1,79,7,0,Novel,1,yes
3,3,43,p,0.8816975000008824,1,90,119,0,Novel,1,yes
3,3,44,q,0.781901292000839,2,45,113,1,Learned,1,yes
3,3,45,p,1.0020009169966215,1,94,38,1,Learned,0,yes
3,3,46,p,0.8003493330033962,1,142,143,0,Novel,1,yes
3,3,47,q,1.6240762079978597,2,37,22,1,Learned,1,yes
3,3,49,p,2.137816208000004,3,144,28,0,Novel,1,yes
3,3,50,p,0.9598259159974988,1,134,13,0,Novel,1,yes
3,3,51,q,1.1663739579962566,1,128,52,1,Learned,1,yes
3,3,52,p,1.4101560420021997,1,72,148,0,Novel,1,yes
3,3,53,p,0.8003758749982808,3,89,123,0,Novel,1,yes
3,3,54,p,0.7018333340020035,2,87,93,0,Novel,1,yes
3,3,55,q,2.277354750003724,3,118,83,1,Learned,1,yes
3,3,56,p,0.6990603329977603,3,139,77,0,Novel,1,yes
3,3,57,q,1.5853839170013089,2,92,106,1,Learned,1,yes
3,3,58,p,2.2534855409976444,2,81,124,0,Novel,1,yes
3,3,59,p,1.025740750003024,2,80,37,0,Novel,1,yes
3,3,60,p,1.097538458998315,1,138,50,0,Novel,1,yes
4,1,2,q,1.1796295829990413,1,1,28,0,Novel,0,yes
4,1,3,q,1.5516000829957193,2,7,21,1,Learned,1,yes
4,1,4,q,1.7929922499897657,3,28,20,1,Learned,1,yes
4,1,5,p,1.1536529580043862,2,21,9,1,Learned,0,yes
4,1,6,p,1.3909357090014964,2,105,12,0,Novel,1,yes
4,1,7,q,1.8071252499939872,2,19,136,0,Novel,0,yes
4,1,8,q,1.176212583988672,1,110,49,0,Novel,0,yes
4,1,9,p,0.8679777919896878,2,37,43,0,Novel,1,yes
4,1,10,q,0.7688847919926047,1,20,25,1,Learned,1,yes
4,1,11,q,0.7683482090069447,1,9,51,1,Learned,1,yes
4,1,12,p,0.9389600830036215,1,107,53,0,Novel,1,yes
4,1,13,p,0.831032125002821,2,11,71,0,Novel,1,yes
4,1,14,p,0.7693413750093896,1,4,79,0,Novel,1,yes
4,1,15,p,1.1175469169975258,1,33,108,0,Novel,1,yes
4,1,16,p,1.1745262920012465,3,17,10,0,Novel,1,yes
4,1,17,p,1.0679687920055585,2,23,83,0,Novel,1,yes
4,1,18,p,0.957737332995748,3,12,144,1,Learned,0,yes
4,1,19,p,1.0649011670029722,2,136,139,1,Learned,0,yes
4,1,20,q,0.8580335840088082,2,49,13,1,Learned,1,yes
4,1,21,q,0.7927928329881979,3,43,124,1,Learned,1,yes
4,1,22,p,0.8399184589943616,1,106,60,0,Novel,1,yes
4,1,23,q,0.7118475829920499,2,25,146,1,Learned,1,yes
4,1,24,p,0.8902216669957852,2,113,140,0,Novel,1,yes
4,1,25,q,0.9434313749952709,3,14,16,0,Novel,0,yes
4,1,26,p,0.9306045420089504,3,38,27,0,Novel,1,yes
4,1,27,p,1.0203233329957584,1,30,141,0,Novel,1,yes
4,1,28,q,0.6696843749959953,1,51,150,1,Learned,1,yes
4,1,29,p,0.7709368750074646,1,114,57,0,Novel,1,yes
4,1,30,p,1.0347179170057643,1,36,125,0,Novel,1,yes
4,1,31,q,1.044936999998754,1,53,7,1,Learned,1,yes
4,1,32,q,0.9015411249856696,2,26,28,0,Novel,0,yes
4,1,33,p,1.0388909580069594,2,71,21,1,Learned,0,yes
4,1,34,q,1.5564032920083264,1,79,20,1,Learned,1,yes
4,1,35,p,0.9959597919951192,3,108,9,1,Learned,0,yes
4,1,36,p,1.1450934580061585,1,18,12,0,Novel,1,yes
4,1,37,q,1.117997249995824,2,10,136,1,Learned,1,yes
4,1,38,q,1.2866783750068862,1,2,49,0,Novel,0,yes
4,1,39,q,1.0760943749919534,3,83,43,1,Learned,1,yes
4,1,40,p,1.4024038330098847,3,144,25,1,Learned,0,yes
4,1,41,p,1.3978889580030227,3,32,51,0,Novel,1,yes
4,1,42,p,1.963430542004062,2,22,53,0,Novel,1,yes
4,1,43,p,1.5085440420079976,1,139,71,1,Learned,0,yes
4,1,44,p,1.1044697920006,3,111,79,0,Novel,1,yes
4,1,45,q,1.6060284579871222,1,13,108,1,Learned,1,yes
4,1,46,p,1.2181780419923598,1,109,10,0,Novel,1,yes
4,1,47,q,1.3305119589931564,2,124,83,1,Learned,1,yes
4,1,48,p,1.199243374998332,3,60,144,1,Learned,0,yes
4,1,49,q,1.190315499989083,3,146,139,1,Learned,1,yes
4,1,50,p,0.9241254999942612,2,104,13,0,Novel,1,yes
4,1,51,q,0.8937586249958258,2,140,124,1,Learned,1,yes
4,1,52,q,1.7068638749915408,2,41,60,0,Novel,0,yes
4,1,53,q,1.161916500001098,3,39,146,0,Novel,0,yes
4,1,54,p,0.8993146249995334,3,16,140,1,Learned,0,yes
4,1,55,q,1.8757990409940248,1,27,16,1,Learned,1,yes
4,1,56,p,1.1900984999956563,3,112,27,0,Novel,1,yes
4,1,57,p,2.2328392500057817,3,141,141,1,Learned,0,yes
4,1,58,q,0.8290467080078088,2,150,150,1,Learned,1,yes
4,1,59,p,1.4960199159977492,1,57,57,1,Learned,0,yes
4,1,60,p,1.1293512500124052,3,125,125,1,Learned,0,yes
4,2,1,p,1.9555105829931565,3,9,7,1,Learned,0,yes
4,2,2,q,0.893818625001586,1,146,28,1,Learned,1,yes
4,2,3,p,1.1547294589981902,3,44,21,0,Novel,1,yes
4,2,4,p,1.473050750006223,3,74,20,0,Novel,1,yes
4,2,5,q,1.5913273750047665,1,47,9,0,Novel,0,yes
4,2,6,p,1.5141283749981085,2,126,12,0,Novel,1,yes
4,2,7,q,0.827597750001587,1,140,136,1,Learned,1,yes
4,2,8,q,1.007044541009236,2,79,49,1,Learned,1,yes
4,2,9,p,1.4644151249958668,3,45,43,0,Novel,1,yes
4,2,10,p,1.5291717920044905,1,62,25,0,Novel,1,yes
4,2,11,q,0.7940956249949522,1,141,51,1,Learned,1,yes
4,2,12,q,1.805815707994043,1,10,53,1,Learned,1,yes
4,2,13,q,1.5213084999995772,2,70,71,0,Novel,0,yes
4,2,14,p,1.4413859580090502,3,73,79,0,Novel,1,yes
4,2,15,p,1.7957228750019567,1,122,108,0,Novel,1,yes
4,2,16,p,1.2143772080016788,1,64,10,0,Novel,1,yes
4,2,17,q,1.4170767920004437,2,123,83,0,Novel,0,yes
4,2,18,q,1.7814472090103664,1,68,144,0,Novel,0,yes
4,2,19,p,1.528459292007028,3,52,139,0,Novel,1,yes
4,2,20,q,1.483296958002029,1,118,13,0,Novel,0,yes
4,2,21,p,1.3890452909981832,2,16,124,1,Learned,0,yes
4,2,22,q,1.65754833300889,2,57,60,1,Learned,1,yes
4,2,23,q,1.288210209007957,2,75,146,0,Novel,0,yes
4,2,24,p,1.3418298340111503,1,7,140,1,Learned,0,yes
4,2,25,q,0.8302633749990491,1,25,16,1,Learned,1,yes
4,2,26,p,1.7147053750086343,1,61,27,0,Novel,1,yes
4,2,27,q,1.4308946250093868,1,49,141,1,Learned,1,yes
4,2,28,p,0.9664965420088264,3,50,150,0,Novel,1,yes
4,2,29,p,2.028579667006852,1,117,57,0,Novel,1,yes
4,2,30,p,0.8977093330031494,1,125,125,1,Learned,0,yes
4,2,32,q,1.4681036249967292,2,53,28,1,Learned,1,yes
4,2,33,q,1.7679714999976568,2,28,21,1,Learned,1,yes
4,2,34,q,1.6273746660008328,3,20,20,1,Learned,1,yes
4,2,35,p,1.6717598750110485,2,66,9,0,Novel,1,yes
4,2,36,q,1.4649581249977928,2,69,12,0,Novel,0,yes
4,2,37,q,1.145833250004216,1,43,136,1,Learned,1,yes
4,2,38,p,1.7192690829979256,3,150,49,1,Learned,0,yes
4,2,39,q,1.2846220000064932,1,108,43,1,Learned,1,yes
4,2,40,q,1.8877156659873435,1,67,25,0,Novel,0,yes
4,2,41,p,1.5039586250059074,2,119,51,0,Novel,1,yes
4,2,42,p,2.129554208004265,3,51,53,1,Learned,0,yes
4,2,43,q,1.317765458006761,1,124,71,1,Learned,1,yes
4,2,44,q,1.0656744580046509,2,60,79,1,Learned,1,yes
4,2,45,p,0.7886320839897962,3,71,108,1,Learned,0,yes
4,2,46,q,1.1308804169966606,3,116,10,0,Novel,0,yes
4,2,47,q,1.0825598329975037,2,12,83,1,Learned,1,yes
4,2,48,p,0.948977832988021,3,72,144,0,Novel,1,yes
4,2,49,p,0.8472958750062389,3,59,139,0,Novel,1,yes
4,2,50,p,1.9167523749929387,2,13,13,1,Learned,0,yes
4,2,51,p,0.8034782089962391,2,128,124,0,Novel,1,yes
4,2,52,q,0.9059184590005316,2,144,60,1,Learned,1,yes
4,2,53,q,1.216973999995389,2,115,146,0,Novel,0,yes
4,2,54,q,1.4948113749996992,1,21,140,1,Learned,1,yes
4,2,55,q,0.9991272080078488,3,56,16,0,Novel,0,yes
4,2,56,p,0.9155683330027388,3,42,27,0,Novel,1,yes
4,2,57,q,1.124264124999172,3,139,141,1,Learned,1,yes
4,2,58,p,1.5741006250027567,2,83,150,1,Learned,0,yes
4,2,59,q,1.593427416999475,2,27,57,1,Learned,1,yes
4,2,60,p,1.0023676250129938,1,136,125,1,Learned,0,yes
4,3,1,q,1.4033072919992264,2,145,7,0,Novel,0,yes
4,3,2,q,1.2834429999929853,2,87,28,0,Novel,0,yes
4,3,3,p,2.1059511250059586,1,101,21,0,Novel,1,yes
4,3,4,q,1.979813625002862,2,91,20,0,Novel,0,yes
4,3,5,p,1.301461750001181,3,80,9,0,Novel,1,yes
4,3,6,p,1.8629612090007868,3,78,12,0,Novel,1,yes
4,3,7,p,1.4644461249990854,1,90,136,0,Novel,1,yes
4,3,8,p,1.2942621249967488,1,89,49,0,Novel,1,yes
4,3,9,q,1.4479092919937102,2,146,43,1,Learned,1,yes
4,3,10,q,1.1303078749915585,2,94,25,0,Novel,0,yes
4,3,11,p,1.338786958003766,2,9,51,1,Learned,0,yes
4,3,12,p,1.6535980409971671,3,57,53,1,Learned,0,yes
4,3,13,p,1.8859613750100832,2,77,71,0,Novel,1,yes
4,3,14,p,1.6428436669957591,1,98,79,0,Novel,1,yes
4,3,15,q,1.8749245830113068,2,97,108,0,Novel,0,yes
4,3,16,q,1.730076708001434,2,108,10,1,Learned,1,yes
4,3,17,q,0.9129862080008024,2,43,83,1,Learned,1,yes
4,3,18,q,0.9065609169920208,3,93,144,0,Novel,0,yes
4,3,19,p,1.0838290829997277,1,129,139,0,Novel,1,yes
4,3,20,q,1.046811374995741,3,13,13,1,Learned,1,yes
4,3,21,q,1.0235508749901785,3,25,124,1,Learned,1,yes
4,3,22,p,1.4280318329983857,1,88,60,0,Novel,1,yes
4,3,23,p,1.3745369579992257,1,92,146,0,Novel,1,yes
4,3,24,p,1.3975649579952003,1,16,140,1,Learned,0,yes
4,3,25,p,1.6473067909973906,2,84,16,0,Novel,1,yes
4,3,26,q,0.9734720830019796,1,28,27,1,Learned,1,yes
4,3,27,p,0.946919333000551,3,131,141,0,Novel,1,yes
4,3,28,q,0.9223061660013628,1,81,150,0,Novel,0,yes
4,3,29,q,0.9275100829981966,2,20,57,1,Learned,1,yes
4,3,30,p,1.10505345799902,1,142,125,0,Novel,1,yes
4,3,31,q,0.907728666003095,3,49,7,1,Learned,1,yes
4,3,32,p,0.8306302080018213,3,82,28,0,Novel,1,yes
4,3,33,p,0.8572697080089711,2,130,21,0,Novel,1,yes
4,3,34,p,1.0574903340020685,3,132,20,0,Novel,1,yes
4,3,35,q,0.9154097080026986,1,138,9,0,Novel,0,yes
4,3,36,p,0.8049300420098007,3,143,12,0,Novel,1,yes
4,3,37,q,1.0039043750002747,1,150,136,1,Learned,1,yes
4,3,38,q,0.8577960420079762,3,10,49,1,Learned,1,yes
4,3,39,q,0.8930177500005811,2,51,43,1,Learned,1,yes
4,3,40,q,1.150643790999311,3,21,25,1,Learned,1,yes
4,3,41,q,0.8742726249911357,2,141,51,1,Learned,1,yes
4,3,42,p,0.8418829579895828,1,100,53,0,Novel,1,yes
4,3,43,q,1.0618128749920288,1,144,71,1,Learned,1,yes
4,3,44,q,0.8409215409919852,3,7,79,1,Learned,1,yes
4,3,45,q,0.7929240419907728,2,135,108,0,Novel,0,yes
4,3,46,p,0.8873577920021489,3,27,10,1,Learned,0,yes
4,3,47,p,0.8536341250000987,1,95,83,0,Novel,1,yes
4,3,48,q,1.312973583000712,3,79,144,1,Learned,1,yes
4,3,49,q,1.1373543329973472,3,124,139,1,Learned,1,yes
4,3,50,p,0.903637916999287,1,76,13,0,Novel,1,yes
4,3,51,q,0.9910097919928376,3,53,124,1,Learned,1,yes
4,3,52,p,1.0671530419931514,2,125,60,1,Learned,0,yes
4,3,53,p,0.973091124993516,3,136,146,1,Learned,0,yes
4,3,54,q,1.381037874991307,3,140,140,1,Learned,1,yes
4,3,55,p,1.109430167009123,1,12,16,1,Learned,0,yes
4,3,56,q,1.6075975419953463,3,134,27,0,Novel,0,yes
4,3,57,p,1.1928142090037,1,71,141,1,Learned,0,yes
4,3,58,p,1.509565542000928,1,83,150,1,Learned,0,yes
4,3,59,q,1.1889710830000697,2,139,57,1,Learned,1,yes
4,3,60,p,0.8485157920076745,1,60,125,1,Learned,0,yes
5,1,1,q,1.4125474999891594,3,25,25,1,Learned,1,yes
5,1,2,q,0.8501374170009512,1,122,106,0,Novel,0,yes
5,1,3,q,1.170812875003321,3,114,110,0,Novel,0,yes
5,1,4,p,0.927368332995684,2,19,123,0,Novel,1,yes
5,1,5,p,1.187748707990977,2,22,1,0,Novel,1,yes
5,1,6,p,1.2216483750089535,2,106,109,1,Learned,0,yes
5,1,7,q,0.8877269579970744,2,110,70,1,Learned,1,yes
5,1,8,p,1.2895350839971798,2,116,111,0,Novel,1,yes
5,1,9,p,1.121052457994665,1,113,33,0,Novel,1,yes
5,1,10,q,1.2002079589874484,1,38,11,0,Novel,0,yes
5,1,11,q,0.806387916993117,1,32,125,0,Novel,0,yes
5,1,12,p,1.0230532919958932,3,105,29,0,Novel,1,yes
5,1,13,q,1.754016375009087,1,123,51,1,Learned,1,yes
5,1,14,q,1.2254903330031084,1,1,108,1,Learned,1,yes
5,1,15,q,1.0763830420037266,3,109,72,1,Learned,1,yes
5,1,16,q,0.7883579579938669,3,70,41,1,Learned,1,yes
5,1,17,q,0.999673125013942,1,111,9,1,Learned,1,yes
5,1,18,p,0.8138911249989178,2,14,107,0,Novel,1,yes
5,1,19,p,0.8863530829985393,3,33,88,1,Learned,0,yes
5,1,20,p,0.9526544169930276,3,104,120,0,Novel,1,yes
5,1,21,p,1.385151208989555,3,23,4,0,Novel,1,yes
5,1,22,p,1.0216770000115505,2,11,92,1,Learned,0,yes
5,1,23,q,0.962108249994344,3,125,10,1,Learned,1,yes
5,1,24,q,1.3952069159859093,3,26,97,0,Novel,0,yes
5,1,25,p,1.115597624986549,1,29,112,1,Learned,0,yes
5,1,26,q,1.0048723749932833,1,51,102,1,Learned,1,yes
5,1,27,p,0.8428928339999402,1,28,13,0,Novel,1,yes
5,1,28,q,0.7998262909968616,3,37,12,0,Novel,0,yes
5,1,29,q,1.8075884580030104,3,108,17,1,Learned,1,yes
5,1,30,p,0.9304204170039156,2,27,62,0,Novel,1,yes
5,1,31,p,0.700806791006471,2,18,25,0,Novel,1,yes
5,1,32,q,0.8277094160002889,1,72,106,1,Learned,1,yes
5,1,33,p,0.7931352500017965,3,30,110,0,Novel,1,yes
5,1,34,q,0.7557017919898499,2,41,123,1,Learned,1,yes
5,1,35,q,0.9627627080044476,3,9,1,1,Learned,1,yes
5,1,36,q,0.6566681660042377,1,107,109,1,Learned,1,yes
5,1,37,p,0.6927327500015963,2,88,70,1,Learned,0,yes
5,1,38,p,0.7676873339951271,1,16,111,0,Novel,1,yes
5,1,39,q,0.7308417500025826,3,120,33,1,Learned,1,yes
5,1,40,q,1.0005789589922642,1,4,11,1,Learned,1,yes
5,1,41,p,0.7000672919966746,3,39,125,0,Novel,1,yes
5,1,42,p,0.6808268339955248,1,92,29,1,Learned,0,yes
5,1,43,p,1.106019250000827,3,10,51,1,Learned,0,yes
5,1,44,p,2.2117465839983197,3,97,108,1,Learned,0,yes
5,1,45,q,1.047322541999165,2,112,72,1,Learned,1,yes
5,1,46,p,0.8320038340025349,1,102,41,1,Learned,0,yes
5,1,47,p,0.9062512919917936,2,2,9,0,Novel,1,yes
5,1,48,p,1.241225208999822,2,118,107,0,Novel,1,yes
5,1,49,q,0.7361531250062399,3,13,88,1,Learned,1,yes
5,1,50,p,1.967930458005867,2,21,120,0,Novel,1,yes
5,1,51,q,1.0224767500039889,2,117,4,0,Novel,0,yes
5,1,52,p,0.7479735829983838,2,115,92,0,Novel,1,yes
5,1,53,q,0.7051835830061464,1,12,10,1,Learned,1,yes
5,1,54,p,0.7213340830057859,3,20,97,0,Novel,1,yes
5,1,55,q,1.690755417002947,1,7,112,0,Novel,0,yes
5,1,56,p,0.8238370420003776,3,36,102,0,Novel,1,yes
5,1,57,p,1.0416707080003107,2,119,13,0,Novel,1,yes
5,1,58,q,2.169213000001037,2,42,12,0,Novel,0,yes
5,1,59,q,1.0067298329959158,1,17,17,1,Learned,1,yes
5,1,60,q,0.8635992920026183,1,62,62,1,Learned,1,yes
5,2,1,q,0.9128340419993036,3,106,25,1,Learned,1,yes
5,2,2,p,1.0225182499998482,1,128,106,0,Novel,1,yes
5,2,3,q,0.9442924579925602,2,72,110,1,Learned,1,yes
5,2,4,p,1.0871514159953222,3,29,123,1,Learned,0,yes
5,2,5,q,0.6911308329872554,2,109,1,1,Learned,1,yes
5,2,6,q,0.7221986249933252,2,111,109,1,Learned,1,yes
5,2,7,p,0.8694970000069588,3,57,70,0,Novel,1,yes
5,2,8,q,0.7719320420001168,2,1,111,1,Learned,1,yes
5,2,9,q,0.7654439580073813,1,52,33,0,Novel,0,yes
5,2,10,p,0.760724667008617,3,44,11,0,Novel,1,yes
5,2,11,p,0.9567942499998026,2,132,125,0,Novel,1,yes
5,2,12,p,0.9413674999959768,1,64,29,0,Novel,1,yes
5,2,13,p,0.8336507499916479,1,10,51,1,Learned,0,yes
5,2,14,p,1.1750119159987662,1,33,108,1,Learned,0,yes
5,2,15,q,0.7687188749987399,1,97,72,1,Learned,1,yes
5,2,16,p,0.8465543339989381,2,47,41,0,Novel,1,yes
5,2,17,p,1.546598208005889,2,56,9,0,Novel,1,yes
5,2,18,p,0.9703047499933746,2,66,107,0,Novel,1,yes
5,2,19,q,0.78826970900991,1,9,88,1,Learned,1,yes
5,2,20,p,1.2226003749965455,1,131,120,0,Novel,1,yes
5,2,21,q,0.7434139580000192,3,68,4,0,Novel,0,yes
5,2,22,p,1.1004442919947903,1,130,92,0,Novel,1,yes
5,2,23,q,0.7962220000044908,1,61,10,0,Novel,0,yes
5,2,24,p,0.8552372499980265,1,59,97,0,Novel,1,yes
5,2,25,p,1.5795394169981591,1,69,112,0,Novel,1,yes
5,2,26,p,0.8229415000096196,2,67,102,0,Novel,1,yes
5,2,27,p,0.7334137089928845,3,134,13,0,Novel,1,yes
5,2,28,q,1.2066634170041652,3,11,12,1,Learned,1,yes
5,2,29,q,1.1602730830054495,3,126,17,0,Novel,0,yes
5,2,30,q,0.8066410000028554,2,62,62,1,Learned,1,yes
5,2,31,q,0.7144624590000603,2,70,25,1,Learned,1,yes
5,2,32,q,1.085836375001236,1,108,106,1,Learned,1,yes
5,2,33,p,1.1861458330095047,2,25,110,1,Learned,0,yes
5,2,34,p,1.559864666996873,2,60,123,0,Novel,1,yes
5,2,35,q,0.8641956250066869,3,123,1,1,Learned,1,yes
5,2,36,q,0.7688292499951785,3,110,109,1,Learned,1,yes
5,2,37,p,0.7453761249926174,1,43,70,0,Novel,1,yes
5,2,38,p,0.9036017080070452,1,50,111,0,Novel,1,yes
5,2,39,p,2.014031458995305,1,45,33,0,Novel,1,yes
5,2,41,q,0.9304480419959872,3,107,125,1,Learned,1,yes
5,2,42,p,1.2918397920002462,3,102,29,1,Learned,0,yes
5,2,43,p,1.5583780000015397,2,120,51,1,Learned,0,yes
5,2,45,q,0.6512601660069777,1,112,72,1,Learned,1,yes
5,2,46,q,1.248955125003704,2,17,41,1,Learned,1,yes
5,2,47,q,0.8528218749997905,2,92,9,1,Learned,1,yes
5,2,48,p,0.6999821250064997,2,124,107,0,Novel,1,yes
5,2,49,p,0.6521172920038225,2,136,88,0,Novel,1,yes
5,2,50,p,0.6884552080009598,2,53,120,0,Novel,1,yes
5,2,51,q,0.7184181659977185,1,125,4,1,Learned,1,yes
5,2,52,p,0.721354875000543,1,49,92,0,Novel,1,yes
5,2,53,q,0.6448149170028046,1,13,10,1,Learned,1,yes
5,2,54,p,2.417581166999298,2,12,97,1,Learned,0,yes
5,2,55,p,0.8545498750027036,1,71,112,0,Novel,1,yes
5,2,56,q,0.9883723750099308,2,135,102,0,Novel,0,yes
5,2,57,p,0.6184318750019884,2,73,13,0,Novel,1,yes
5,2,58,p,0.9799912500020582,2,51,12,1,Learned,0,yes
5,2,59,p,0.9707089160074248,3,88,17,1,Learned,0,yes
5,2,60,p,0.9074338749924208,2,4,62,1,Learned,0,yes
5,3,1,q,0.6910370840050746,1,120,25,1,Learned,1,yes
5,3,2,p,0.6559052919910755,3,98,106,0,Novel,1,yes
5,3,3,p,0.8193361669982551,2,80,110,0,Novel,1,yes
5,3,4,p,0.7900045000133105,1,90,123,0,Novel,1,yes
5,3,5,q,0.7903009160072543,1,109,1,1,Learned,1,yes
5,3,6,q,0.6230289170052856,1,70,109,1,Learned,1,yes
5,3,7,p,1.2405605410021965,2,10,70,1,Learned,0,yes
5,3,8,q,0.6809599999978673,3,17,111,1,Learned,1,yes
5,3,9,p,0.754764208002598,2,75,33,0,Novel,1,yes
5,3,10,p,0.7185777499980759,2,76,11,0,Novel,1,yes
5,3,11,q,0.6121158750029281,2,13,125,1,Learned,1,yes
5,3,12,q,0.7389670420088805,2,87,29,0,Novel,0,yes
5,3,13,p,0.8603742499981308,1,100,51,0,Novel,1,yes
5,3,14,p,0.7534505829971749,1,79,108,0,Novel,1,yes
5,3,15,q,1.116754957998637,3,41,72,1,Learned,1,yes
5,3,16,p,1.0846483329951295,1,82,41,0,Novel,1,yes
5,3,17,p,0.6713538329931907,3,139,9,0,Novel,1,yes
5,3,18,p,0.7923339160042815,1,83,107,0,Novel,1,yes
5,3,19,q,0.619090457999846,2,125,88,1,Learned,1,yes
5,3,20,p,0.9182710830064024,2,33,120,1,Learned,0,yes
5,3,21,q,1.4524702499911657,3,72,4,1,Learned,1,yes
5,3,22,p,0.9660984999936773,1,94,92,0,Novel,1,yes
5,3,23,p,0.9978582910116528,2,140,10,0,Novel,1,yes
5,3,24,p,0.8130921249976382,1,74,97,0,Novel,1,yes
5,3,25,p,0.6704550419963198,2,84,112,0,Novel,1,yes
5,3,26,p,0.5969069169950671,1,138,102,0,Novel,1,yes
5,3,27,p,1.114726707994123,3,147,13,0,Novel,1,yes
5,3,28,q,0.8096212079981342,3,51,12,1,Learned,1,yes
5,3,29,p,0.8894789170008153,1,93,17,0,Novel,1,yes
5,3,30,p,1.894053083000472,2,89,62,0,Novel,1,yes
5,3,31,q,0.7349672920099692,3,62,25,1,Learned,1,yes
5,3,32,q,0.8410045000055106,2,107,106,1,Learned,1,yes
5,3,33,q,1.3723480420012493,3,92,110,1,Learned,1,yes
5,3,34,p,0.6712430420011515,1,11,123,1,Learned,0,yes
5,3,35,p,0.745489249995444,3,146,1,0,Novel,1,yes
5,3,36,p,0.6304681670007994,1,142,109,0,Novel,1,yes
5,3,37,q,0.8814637909963494,3,112,70,1,Learned,1,yes
5,3,38,q,2.457846667006379,2,123,111,1,Learned,1,yes
5,3,39,q,1.132646832993487,2,102,33,1,Learned,1,yes
5,3,40,p,0.683545709005557,2,144,11,0,Novel,1,yes
5,3,41,p,0.7082351249991916,2,95,125,0,Novel,1,yes
5,3,42,q,1.015747958997963,3,12,29,1,Learned,1,yes
5,3,43,p,1.0330224160134094,3,141,51,0,Novel,1,yes
5,3,44,p,0.8910443749919068,1,143,108,0,Novel,1,yes
5,3,45,q,0.7469012920046225,1,110,72,1,Learned,1,yes
5,3,46,q,0.9475977499969304,3,77,41,0,Novel,0,yes
5,3,47,p,0.9162574160000077,1,81,9,0,Novel,1,yes
5,3,48,p,0.8663748749968363,2,108,107,1,Learned,0,yes
5,3,49,p,0.7195212090009591,2,29,88,1,Learned,0,yes
5,3,50,p,2.3052922499919077,1,145,120,0,Novel,1,yes
5,3,51,p,0.8663924159918679,3,78,4,0,Novel,1,yes
5,3,52,p,1.063634834004915,2,91,92,0,Novel,1,yes
5,3,53,p,1.0423544999939622,2,97,10,1,Learned,0,yes
5,3,54,q,0.794510709005408,1,88,97,1,Learned,1,yes
5,3,55,q,0.8700756670004921,3,4,112,1,Learned,1,yes
5,3,56,q,1.1280488750053337,3,1,102,1,Learned,1,yes
5,3,57,q,2.4953559169953223,1,25,13,1,Learned,1,yes
5,3,58,q,0.8547878749959636,3,111,12,1,Learned,1,yes
5,3,59,q,1.2562249159964267,1,106,17,1,Learned,1,yes
5,3,60,p,0.8462697499926435,2,9,62,1,Learned,0,yes
6,1,1,q,0.9678354999996372,3,70,70,1,Learned,1,yes
6,1,2,p,0.8893572090019006,2,10,9,0,Novel,1,yes
6,1,3,p,1.0175421659987478,3,110,136,0,Novel,1,yes
6,1,4,q,0.9438181250006892,2,9,12,1,Learned,1,yes
6,1,5,p,0.9085222499998054,1,18,138,0,Novel,1,yes
6,1,6,q,0.8013799580003251,1,136,38,1,Learned,1,yes
6,1,7,q,0.6745691659998556,1,12,78,1,Learned,1,yes
6,1,8,p,0.6859937920016819,3,138,135,1,Learned,0,yes
6,1,9,p,0.7416754999976547,3,7,123,0,Novel,1,yes
6,1,10,q,0.530667999999423,2,38,64,1,Learned,1,yes
6,1,11,p,0.7456391669984441,1,27,73,0,Novel,1,yes
6,1,12,p,0.7272638340000412,3,112,67,0,Novel,1,yes
6,1,13,p,1.0735408750006172,2,78,37,1,Learned,0,yes
6,1,14,q,0.8839990409978782,2,135,98,1,Learned,1,yes
6,1,15,p,0.8423927500007267,2,16,140,0,Novel,1,yes
6,1,16,p,0.6306655000007595,1,123,104,1,Learned,0,yes
6,1,17,p,0.8042302499998186,1,111,76,0,Novel,1,yes
6,1,18,p,0.8425691670017841,1,105,134,0,Novel,1,yes
6,1,19,p,0.79656220799734,1,115,36,0,Novel,1,yes
6,1,20,q,0.9396775829991384,2,64,141,1,Learned,1,yes
6,1,21,q,0.8574615830002585,2,73,71,1,Learned,1,yes
6,1,22,q,0.7373301250008808,1,67,146,1,Learned,1,yes
6,1,23,q,0.6713914590000059,1,37,92,1,Learned,1,yes
6,1,24,p,0.6744031249982072,1,106,32,0,Novel,1,yes
6,1,25,p,0.5910423749992333,3,30,91,0,Novel,1,yes
6,1,26,q,0.7027491250009916,3,98,108,1,Learned,1,yes
6,1,27,p,0.6170367080012511,2,25,23,0,Novel,1,yes
6,1,28,p,0.7235669579968089,1,20,75,0,Novel,1,yes
6,1,29,p,0.8256808339974668,2,1,60,0,Novel,1,yes
6,1,30,q,0.7702323750017968,1,140,22,1,Learned,1,yes
6,1,31,q,0.5918267909983115,1,104,70,1,Learned,1,yes
6,1,32,p,0.6219057499984046,2,4,9,0,Novel,1,yes
6,1,33,p,0.9651317499992728,3,76,136,1,Learned,0,yes
6,1,34,p,0.7751747500005877,3,11,12,0,Novel,1,yes
6,1,35,p,0.6714322920015547,2,134,138,1,Learned,0,yes
6,1,36,p,0.8218342920008581,2,28,38,0,Novel,1,yes
6,1,37,p,0.7134987499994168,3,36,78,1,Learned,0,yes
6,1,38,p,0.8111530000023777,3,113,135,0,Novel,1,yes
6,1,39,q,0.8159134589986934,2,141,123,1,Learned,1,yes
6,1,40,p,0.7378241250007704,2,2,64,0,Novel,1,yes
6,1,41,p,0.7291730830002052,2,21,73,0,Novel,1,yes
6,1,42,p,0.5918847499997355,3,107,67,0,Novel,1,yes
6,1,43,p,0.5620501249977679,3,19,37,0,Novel,1,yes
6,1,44,p,0.6672160419984721,3,29,98,0,Novel,1,yes
6,1,45,p,0.5762124169996241,3,114,140,0,Novel,1,yes
6,1,46,p,0.6749291669984814,3,71,104,1,Learned,0,yes
6,1,47,p,0.818444290998741,3,26,76,0,Novel,1,yes
6,1,48,p,0.727726958997664,3,13,134,0,Novel,1,yes
6,1,49,p,0.8565752920003433,3,17,36,0,Novel,1,yes
6,1,50,p,0.7574783329982893,3,14,141,0,Novel,1,yes
6,1,51,p,0.8123928749992047,1,109,71,0,Novel,1,yes
6,1,52,q,0.6664869169981102,1,146,146,1,Learned,1,yes
6,1,53,p,0.7824625419998483,3,92,92,1,Learned,0,yes
6,1,54,q,0.7269726250015083,3,32,32,1,Learned,1,yes
6,1,55,q,0.5700096250002389,3,91,91,1,Learned,1,yes
6,1,56,p,0.6118361670014565,1,108,108,1,Learned,0,yes
6,1,57,q,0.8668935829991824,1,23,23,1,Learned,1,yes
6,1,58,q,0.9051922500002548,1,75,75,1,Learned,1,yes
6,1,59,p,0.8324611669995647,3,60,60,1,Learned,0,yes
6,1,60,q,0.7789384579991747,2,22,22,1,Learned,1,yes
6,2,1,p,0.8220347499991476,3,50,70,0,Novel,1,yes
6,2,2,q,0.474113167001633,3,104,9,1,Learned,1,yes
6,2,3,q,0.5318352079993929,1,141,136,1,Learned,1,yes
6,2,4,q,0.7035398339976382,2,49,12,0,Novel,0,yes
6,2,5,p,0.6902018330001738,2,41,138,0,Novel,1,yes
6,2,6,p,0.6475970829997095,2,60,38,1,Learned,0,yes
6,2,7,q,0.5380334999972547,3,37,78,1,Learned,1,yes
6,2,8,q,0.6218908750015544,2,123,135,1,Learned,1,yes
6,2,9,q,0.5887287500008824,1,64,123,1,Learned,1,yes
6,2,10,p,0.5875617080018856,2,42,64,0,Novel,1,yes
6,2,11,q,0.7929806659994938,1,70,73,1,Learned,1,yes
6,2,12,p,0.45462449999831733,3,117,67,0,Novel,1,yes
6,2,13,q,0.6620928749980521,2,76,37,1,Learned,1,yes
6,2,14,p,0.7398409999987052,2,138,98,1,Learned,0,yes
6,2,15,p,0.5447275000005902,2,75,140,1,Learned,0,yes
6,2,16,q,0.7006601249995583,2,146,104,1,Learned,1,yes
6,2,17,p,0.6242226670001401,3,78,76,1,Learned,0,yes
6,2,18,p,0.5794884169990837,3,9,134,1,Learned,0,yes
6,2,19,q,0.6025116669989075,2,136,36,1,Learned,1,yes
6,2,20,p,0.6103842919983435,1,73,141,1,Learned,0,yes
6,2,21,q,0.6152771249981015,2,98,71,1,Learned,1,yes
6,2,22,p,0.6681178339968028,2,119,146,0,Novel,1,yes
6,2,23,p,0.5101709999980812,3,43,92,0,Novel,1,yes
6,2,24,q,0.5943097919989668,3,38,32,1,Learned,1,yes
6,2,25,q,0.7424283330001344,1,32,91,1,Learned,1,yes
6,2,26,p,0.7328256670007249,2,62,108,0,Novel,1,yes
6,2,27,q,0.580115458000364,3,22,23,1,Learned,1,yes
6,2,28,p,0.5821647499979008,2,45,75,0,Novel,1,yes
6,2,29,p,0.6394037919999391,2,71,60,1,Learned,0,yes
6,2,30,p,0.6322188330013887,3,23,22,1,Learned,0,yes
6,2,31,p,0.6468182919998071,3,122,70,0,Novel,1,yes
6,2,32,p,0.5781812919994991,2,118,9,0,Novel,1,yes
6,2,33,p,0.656293124997319,3,124,136,0,Novel,1,yes
6,2,34,p,0.5236936250003055,2,68,12,0,Novel,1,yes
6,2,35,p,0.5555537089967402,3,39,138,0,Novel,1,yes
6,2,36,q,0.9437418330016952,2,108,38,1,Learned,1,yes
6,2,37,q,0.5504415420000441,2,91,78,1,Learned,1,yes
6,2,38,p,0.5573708330011868,2,92,135,1,Learned,0,yes
6,2,39,p,0.6723536249992321,1,36,123,1,Learned,0,yes
6,2,40,q,0.7719860409997636,3,67,64,1,Learned,1,yes
6,2,41,q,0.6897486669986392,2,140,73,1,Learned,1,yes
6,2,42,q,0.5912087920005433,3,12,67,1,Learned,1,yes
6,2,43,p,0.6354773749990272,3,116,37,0,Novel,1,yes
6,2,44,p,0.6990593330010597,1,134,98,1,Learned,0,yes
6,2,45,q,0.602595125001244,1,135,140,1,Learned,1,yes
6,2,46,p,0.9485713340000076,2,59,104,0,Novel,1,yes
6,2,47,p,0.7435330420012178,3,128,76,0,Novel,1,yes
6,2,48,p,0.954326208000566,2,61,134,0,Novel,1,yes
6,2,49,p,0.7491087090020301,1,66,36,0,Novel,1,yes
6,2,50,p,0.5926047499997367,3,126,141,0,Novel,1,yes
6,2,51,p,0.5988600419987051,1,53,71,0,Novel,1,yes
6,2,52,p,0.7493979999999283,2,33,146,0,Novel,1,yes
6,2,53,p,1.1937483750007232,2,56,92,0,Novel,1,yes
6,2,54,p,0.6851356250008394,1,47,32,0,Novel,1,yes
6,2,55,p,0.9299140830007672,3,125,91,0,Novel,1,yes
6,2,56,q,0.8009558330013533,1,52,108,0,Novel,0,yes
6,2,57,p,0.5747188329987694,1,44,23,0,Novel,1,yes
6,2,58,q,0.6481091669993475,1,120,75,0,Novel,0,yes
6,2,59,p,0.5608638329977111,1,51,60,0,Novel,1,yes
6,2,60,p,0.7074022500019055,3,57,22,0,Novel,1,yes
6,3,1,p,0.799895916999958,1,76,70,1,Learned,0,yes
6,3,2,q,0.8557213749991206,2,70,9,1,Learned,1,yes
6,3,3,p,0.6902616669976851,2,90,136,0,Novel,1,yes
6,3,4,q,0.5607276250011637,1,92,12,1,Learned,1,yes
6,3,5,p,0.8524394169980951,3,75,138,1,Learned,0,yes
6,3,6,p,0.5625327079978888,2,100,38,0,Novel,1,yes
6,3,7,q,0.6158539589996508,3,64,78,1,Learned,1,yes
6,3,8,q,0.5885507080020034,1,69,135,0,Novel,0,yes
6,3,9,p,0.4683439580003323,1,145,123,0,Novel,1,yes
6,3,10,p,0.7121138340007747,3,79,64,0,Novel,1,yes
6,3,11,p,0.5785150000010617,2,80,73,0,Novel,1,yes
6,3,12,p,0.7890479999987292,3,101,67,0,Novel,1,yes
6,3,13,p,0.6902656250022119,2,144,37,0,Novel,1,yes
6,3,14,q,0.6278679169990937,3,140,98,1,Learned,1,yes
6,3,15,p,0.5728663329973642,1,132,140,0,Novel,1,yes
6,3,16,q,0.565876083997864,1,91,104,1,Learned,1,yes
6,3,17,p,0.544267375000345,3,142,76,0,Novel,1,yes
6,3,18,q,0.7372906669988879,1,78,134,1,Learned,1,yes
6,3,19,p,0.5661512080005195,3,72,36,0,Novel,1,yes
6,3,20,p,0.8953414159987005,1,138,141,1,Learned,0,yes
6,3,21,q,0.7669908339994436,2,12,71,1,Learned,1,yes
6,3,22,p,0.71608974999981,1,71,146,1,Learned,0,yes
6,3,23,p,0.7702752080003847,3,89,92,0,Novel,1,yes
6,3,24,p,0.654067750001559,3,141,32,1,Learned,0,yes
6,3,25,p,1.0641872080013854,2,131,91,0,Novel,1,yes
6,3,26,q,0.8538062920015363,2,67,108,1,Learned,1,yes
6,3,27,p,0.5417676249999204,2,23,23,1,Learned,0,yes
6,3,28,p,0.5667822920004255,2,37,75,1,Learned,0,yes
6,3,29,p,0.707597666001675,3,84,60,0,Novel,1,yes
6,3,30,p,0.7391984580026474,2,88,22,0,Novel,1,yes
6,3,31,p,0.647562291000213,3,93,70,0,Novel,1,yes
6,3,32,q,0.5740228750000824,3,136,9,1,Learned,1,yes
6,3,33,q,0.6254024590016343,3,146,136,1,Learned,1,yes
6,3,34,p,0.6643691249992116,1,97,12,0,Novel,1,yes
6,3,35,p,0.6691482079986599,3,81,138,0,Novel,1,yes
6,3,36,p,0.6219711660014582,1,74,38,0,Novel,1,yes
6,3,37,p,0.6083617910007888,3,129,78,0,Novel,1,yes
6,3,38,p,0.7544278749992372,3,135,135,1,Learned,0,yes
6,3,39,p,0.5461212920017715,2,143,123,0,Novel,1,yes
6,3,40,q,0.6978873749976628,1,98,64,1,Learned,1,yes
6,3,41,p,0.7110807089993614,1,82,73,0,Novel,1,yes
6,3,42,p,0.6494266250010696,1,60,67,1,Learned,0,yes
6,3,43,q,0.7628904160010279,3,108,37,1,Learned,1,yes
6,3,44,q,0.7165889590032748,1,22,98,1,Learned,1,yes
6,3,45,p,0.695405957998446,3,123,140,1,Learned,0,yes
6,3,46,p,0.7301383330013778,2,77,104,0,Novel,1,yes
6,3,47,p,0.6472565830008534,3,94,76,0,Novel,1,yes
6,3,48,p,0.5888171670012525,2,95,134,0,Novel,1,yes
6,3,49,p,0.6336087499985297,3,130,36,0,Novel,1,yes
6,3,50,p,0.6742909580025298,2,147,141,0,Novel,1,yes
6,3,51,p,0.8836512499983655,2,32,71,1,Learned,0,yes
6,3,52,q,0.8975345409999136,3,134,146,1,Learned,1,yes
6,3,53,q,0.7477788329997566,1,9,92,1,Learned,1,yes
6,3,54,p,0.6113944589997118,2,139,32,0,Novel,1,yes
6,3,55,p,0.4886398329981603,1,83,91,0,Novel,1,yes
6,3,56,p,0.5148092919989722,1,87,108,0,Novel,1,yes
6,3,57,p,0.523684374998993,3,73,23,1,Learned,0,yes
6,3,58,q,0.6006685840002319,2,104,75,1,Learned,1,yes
6,3,59,p,0.5745607089993428,2,36,60,1,Learned,0,yes
6,3,60,p,0.5255931669998972,1,38,22,1,Learned,0,yes
7,1,1,q,0.8726522919969284,3,151,151,1,Learned,1,yes
7,1,2,q,0.6636783750000177,3,130,130,1,Learned,1,yes
7,1,3,p,0.799187874999916,3,110,134,0,Novel,1,yes
7,1,4,q,1.0937572919974627,3,19,80,0,Novel,0,yes
7,1,5,p,1.2111243330000434,2,37,74,0,Novel,1,yes
7,1,6,q,0.9940397500031396,1,134,7,1,Learned,1,yes
7,1,7,p,1.1755657079993398,2,80,43,1,Learned,0,yes
7,1,8,q,0.7992267910012743,2,25,132,0,Novel,0,yes
7,1,9,p,1.312773207999271,3,112,107,0,Novel,1,yes
7,1,10,q,1.2288024589979614,3,74,106,1,Learned,1,yes
7,1,11,q,0.9148820000009436,1,7,60,1,Learned,1,yes
7,1,12,q,1.436553042000014,2,43,9,1,Learned,1,yes
7,1,13,q,1.0044908329982718,3,132,41,1,Learned,1,yes
7,1,14,q,1.0478514159985934,1,26,21,0,Novel,0,yes
7,1,15,q,1.0059084579988848,3,22,122,0,Novel,0,yes
7,1,16,q,0.6221913329973177,1,107,97,1,Learned,1,yes
7,1,17,p,1.7104822080000304,3,17,128,0,Novel,1,yes
7,1,18,q,0.923976207999658,1,16,91,0,Novel,0,yes
7,1,19,p,1.5911109160006165,3,4,18,0,Novel,1,yes
7,1,20,q,0.7253710410004715,1,30,94,0,Novel,0,yes
7,1,21,q,0.6102296660028514,1,106,12,1,Learned,1,yes
7,1,22,p,1.177692917000968,1,60,142,1,Learned,0,yes
7,1,23,q,0.9381654580029136,3,9,11,1,Learned,1,yes
7,1,24,q,1.16538695899726,3,41,36,1,Learned,1,yes
7,1,25,p,1.3084823329991195,3,2,93,0,Novel,1,yes
7,1,26,p,1.1318644170023615,2,21,69,1,Learned,0,yes
7,1,27,q,0.8713036660010403,2,122,144,1,Learned,1,yes
7,1,28,p,0.8157718330003263,2,97,13,1,Learned,0,yes
7,1,29,p,1.0843271250014368,3,109,29,0,Novel,1,yes
7,1,30,q,1.9732261249992007,2,128,53,1,Learned,1,yes
7,1,31,p,1.248482792001596,1,114,151,0,Novel,1,yes
7,1,33,q,1.2430915420009114,1,28,134,0,Novel,0,yes
7,1,34,q,1.2863470840020454,3,10,80,0,Novel,0,yes
7,1,35,q,1.7491714589996263,2,33,74,0,Novel,0,yes
7,1,36,q,1.4233592080017845,2,20,7,0,Novel,0,yes
7,1,37,p,1.0170660419971682,1,104,43,0,Novel,1,yes
7,1,38,q,0.8978355830004148,2,1,132,0,Novel,0,yes
7,1,39,p,1.336672458997782,3,14,107,0,Novel,1,yes
7,1,40,q,2.100969167000585,2,91,106,1,Learned,1,yes
7,1,41,p,1.6624595829998725,3,18,60,1,Learned,0,yes
7,1,42,q,1.7754487079982937,3,38,9,0,Novel,0,yes
7,1,43,p,1.2989937080019445,2,115,41,0,Novel,1,yes
7,1,44,p,1.4535136660015269,3,23,21,0,Novel,1,yes
7,1,45,q,2.2103612079990853,1,94,122,1,Learned,1,yes
7,1,46,p,0.97494370899949,1,105,97,0,Novel,1,yes
7,1,47,p,0.8507849579982576,3,12,128,1,Learned,0,yes
7,1,48,p,1.6288803749994258,2,111,91,0,Novel,1,yes
7,1,49,p,1.5039164590016298,2,142,18,1,Learned,0,yes
7,1,50,q,1.2323516249998647,1,108,94,0,Novel,0,yes
7,1,51,q,1.5742166669988364,1,113,12,0,Novel,0,yes
7,1,52,p,1.4605965000009746,1,32,142,0,Novel,1,yes
7,1,53,p,1.4857556669994665,3,11,11,1,Learned,0,yes
7,1,54,p,0.8312624580030388,2,36,36,1,Learned,0,yes
7,1,56,q,1.08508399999846,2,69,69,1,Learned,1,yes
7,1,57,q,1.6431048340018606,2,144,144,1,Learned,1,yes
7,1,58,p,1.777105708002637,2,13,13,1,Learned,0,yes
7,1,59,p,1.1236089170015475,2,29,29,1,Learned,0,yes
7,1,60,q,1.2071285829988485,2,53,53,1,Learned,1,yes
7,2,1,p,1.1928939589997754,2,60,151,1,Learned,0,yes
7,2,2,q,0.8503453750017798,1,91,130,1,Learned,1,yes
7,2,3,q,1.1918026669991375,2,151,134,1,Learned,1,yes
7,2,4,q,1.5427200410013029,2,70,80,0,Novel,0,yes
7,2,5,q,0.9071129580006528,3,120,74,0,Novel,0,yes
7,2,6,p,0.9057502079995174,3,128,7,1,Learned,0,yes
7,2,7,p,1.2895184999979392,3,29,43,1,Learned,0,yes
7,2,8,q,0.9843855829967652,3,94,132,1,Learned,1,yes
7,2,9,q,1.5270038340022438,2,61,107,0,Novel,0,yes
7,2,10,p,0.8488210840005195,1,80,106,1,Learned,0,yes
7,2,12,q,1.3914527909983008,1,21,9,1,Learned,1,yes
7,2,13,p,1.3002910839968536,3,47,41,0,Novel,1,yes
7,2,14,q,0.902207458999328,3,118,21,0,Novel,0,yes
7,2,15,p,0.8453769170009764,3,49,122,0,Novel,1,yes
7,2,16,p,1.1987732919988048,1,11,97,1,Learned,0,yes
7,2,17,p,1.184720458000811,2,126,128,0,Novel,1,yes
7,2,18,q,0.9694430830022612,3,117,91,0,Novel,0,yes
7,2,19,q,1.032968957999401,3,43,18,1,Learned,1,yes
7,2,20,p,0.97698866599967,3,45,94,0,Novel,1,yes
7,2,21,p,0.9179454580007588,3,106,12,1,Learned,0,yes
7,2,22,p,0.8415973330011184,3,119,142,0,Novel,1,yes
7,2,23,p,0.8266768749999756,2,134,11,1,Learned,0,yes
7,2,24,p,0.8096153750011581,1,142,36,1,Learned,0,yes
7,2,25,p,0.6307832499987853,3,122,93,1,Learned,0,yes
7,2,26,p,0.976026208998519,2,68,69,0,Novel,1,yes
7,2,28,q,1.0881410420006432,2,56,13,0,Novel,0,yes
7,2,30,q,1.1291317499999425,1,9,53,1,Learned,1,yes
7,2,32,q,1.4248402919984071,2,107,130,1,Learned,1,yes
7,2,33,q,0.9946770829992602,2,124,134,0,Novel,0,yes
7,2,34,p,1.1752249589990242,2,12,80,1,Learned,0,yes
7,2,35,q,1.2052490409987513,2,7,74,1,Learned,1,yes
7,2,36,p,1.3959163750005246,1,18,7,1,Learned,0,yes
7,2,37,q,1.095786958001554,1,41,43,1,Learned,1,yes
7,2,38,q,0.9884691660008684,1,50,132,0,Novel,0,yes
7,2,39,p,1.0851427919988057,3,36,107,1,Learned,0,yes
7,2,40,p,1.576023666002584,2,39,106,0,Novel,1,yes
7,2,41,q,0.9303084169987414,2,66,60,0,Novel,0,yes
7,2,42,q,0.9226195410010404,1,13,9,1,Learned,1,yes
7,2,43,q,1.5858991669992974,2,74,41,1,Learned,1,yes
7,2,44,q,1.5064928749998217,3,69,21,1,Learned,1,yes
7,2,45,q,1.0005377910019888,1,71,122,0,Novel,0,yes
7,2,46,q,0.9189868749999732,2,132,97,1,Learned,1,yes
7,2,47,p,0.8315028750002966,3,125,128,0,Novel,1,yes
7,2,48,p,1.206778250001662,2,42,91,0,Novel,1,yes
7,2,49,q,1.1480230830020446,3,116,18,0,Novel,0,yes
7,2,50,q,1.2418562919992835,1,97,94,1,Learned,1,yes
7,2,51,p,1.105153500000597,2,93,12,1,Learned,0,yes
7,2,52,q,1.1894211250000808,3,144,142,1,Learned,1,yes
7,2,53,q,1.198299624997162,3,59,11,0,Novel,0,yes
7,2,54,q,1.5041585840008338,1,130,36,1,Learned,1,yes
7,2,55,q,1.268617540998093,3,52,93,0,Novel,0,yes
7,2,56,p,2.172001625000121,2,62,69,0,Novel,1,yes
7,2,57,p,1.4648696250005742,2,129,144,0,Novel,1,yes
7,2,59,q,0.7924861249994137,2,57,29,0,Novel,0,yes
7,2,60,p,0.9336746670014692,1,67,53,0,Novel,1,yes
7,3,1,p,1.1259890420005831,2,139,151,0,Novel,1,yes
7,3,2,q,0.9002173340013542,1,74,130,1,Learned,1,yes
7,3,3,q,0.9390375830007542,1,29,134,1,Learned,1,yes
7,3,4,p,0.836684541998693,1,82,80,0,Novel,1,yes
7,3,5,q,0.8392454170025303,3,91,74,1,Learned,1,yes
7,3,6,q,0.7552059580011701,1,141,7,0,Novel,0,yes
7,3,7,q,0.9160199590005504,3,13,43,1,Learned,1,yes
7,3,8,q,0.8779964999994263,3,73,132,0,Novel,0,yes
7,3,9,p,0.8898795420027454,3,135,107,0,Novel,1,yes
7,3,10,q,1.3613802079999004,3,88,106,0,Novel,0,yes
7,3,11,p,1.3410927500008256,1,128,60,1,Learned,0,yes
7,3,12,p,1.135868124998524,3,101,9,0,Novel,1,yes
7,3,13,q,0.9441251659991394,1,132,41,1,Learned,1,yes
7,3,14,q,1.0913591669996094,1,36,21,1,Learned,1,yes
7,3,15,p,0.9110355419979896,3,21,122,1,Learned,0,yes
7,3,16,p,1.01677354200001,2,146,97,0,Novel,1,yes
7,3,17,q,0.7429136249993462,3,80,128,1,Learned,1,yes
7,3,18,p,0.956683874999726,2,84,91,0,Novel,1,yes
7,3,19,q,0.735283417001483,2,41,18,1,Learned,1,yes
7,3,20,q,1.083420709001075,3,142,94,1,Learned,1,yes
7,3,21,p,0.7711484169994947,1,140,12,0,Novel,1,yes
7,3,22,q,1.1304122500005178,1,72,142,0,Novel,0,yes
7,3,23,q,1.5918872919974092,1,122,11,1,Learned,1,yes
7,3,24,p,1.0685346249993015,2,106,36,1,Learned,0,yes
7,3,25,q,0.6881379589976859,1,12,93,1,Learned,1,yes
7,3,26,q,0.687636916001793,1,69,69,1,Learned,1,yes
7,3,27,p,1.3589620419988933,1,92,144,0,Novel,1,yes
7,3,28,q,1.141216167001403,3,93,13,1,Learned,1,yes
7,3,29,q,0.7771556659972703,3,90,29,0,Novel,0,yes
7,3,30,p,1.338431500000297,3,98,53,0,Novel,1,yes
7,3,31,p,1.092211541999859,2,143,151,0,Novel,1,yes
7,3,32,q,0.8669247500001802,1,78,130,0,Novel,0,yes
7,3,33,p,0.6850627500025439,3,60,134,1,Learned,0,yes
7,3,34,p,1.2424885840009663,1,145,80,0,Novel,1,yes
7,3,35,p,0.8289042500000505,3,77,74,0,Novel,1,yes
7,3,36,p,0.6036013749981066,3,75,7,0,Novel,1,yes
7,3,37,q,0.6956813329998113,3,97,43,1,Learned,1,yes
7,3,38,p,0.6867572910014133,3,76,132,0,Novel,1,yes
7,3,39,q,1.358466916000907,2,79,107,0,Novel,0,yes
7,3,40,q,0.983021000000008,3,134,106,1,Learned,1,yes
7,3,41,q,0.7178644580017135,3,7,60,1,Learned,1,yes
7,3,42,q,0.8162347080033214,2,138,9,0,Novel,0,yes
7,3,43,q,0.9382853329989302,1,53,41,1,Learned,1,yes
7,3,44,q,2.3147780420003983,2,94,21,1,Learned,1,yes
7,3,45,p,1.1869148340010724,2,11,122,1,Learned,0,yes
7,3,46,p,1.5343247089986107,2,136,97,0,Novel,1,yes
7,3,47,q,0.7594281249985215,1,151,128,1,Learned,1,yes
7,3,48,p,0.998313041000074,3,87,91,0,Novel,1,yes
7,3,49,p,0.8881121670019638,2,18,18,1,Learned,0,yes
7,3,50,q,0.7190290409998852,1,100,94,0,Novel,0,yes
7,3,51,p,0.7635455420022481,2,95,12,0,Novel,1,yes
7,3,52,p,0.7951830410020193,1,131,142,0,Novel,1,yes
7,3,53,q,1.3594696660002228,1,89,11,0,Novel,0,yes
7,3,54,q,1.0377439590010908,1,43,36,1,Learned,1,yes
7,3,55,q,1.0453902499975811,1,144,93,1,Learned,1,yes
7,3,56,p,0.9137726670014672,2,81,69,0,Novel,1,yes
7,3,57,p,1.311919540999952,1,83,144,0,Novel,1,yes
7,3,58,q,1.099186749997898,2,130,13,1,Learned,1,yes
7,3,59,p,0.46949041599873453,2,9,29,1,Learned,0,yes
7,3,60,p,0.7729042089995346,3,107,53,1,Learned,0,yes
8,1,2,p,2.0111596249989816,3,14,98,0,Novel,1,yes
8,1,3,q,2.0156947079995007,3,142,23,1,Learned,1,yes
8,1,4,p,1.631258417000936,1,19,28,0,Novel,1,yes
8,1,5,p,1.358182832998864,3,30,59,0,Novel,1,yes
8,1,8,p,1.9523222919997352,2,27,36,0,Novel,1,yes
8,1,10,q,1.7501421670021955,2,98,49,1,Learned,1,yes
8,1,11,q,1.587295459001325,2,23,145,1,Learned,1,yes
8,1,12,q,1.3802622080002038,3,28,9,1,Learned,1,yes
8,1,13,p,1.3331789580006443,2,12,140,0,Novel,1,yes
8,1,14,q,1.099956416997884,3,59,66,1,Learned,1,yes
8,1,15,q,1.7370037919972674,2,33,123,1,Learned,1,yes
8,1,17,p,1.340574583002308,3,36,105,1,Learned,0,yes
8,1,18,q,1.0966927920017042,1,26,56,0,Novel,0,yes
8,1,20,q,1.8642032919997291,1,49,139,1,Learned,1,yes
8,1,21,p,1.082315750001726,1,16,79,0,Novel,1,yes
8,1,23,q,1.212347332999343,1,9,102,1,Learned,1,yes
8,1,24,p,1.8699870829987049,1,11,91,0,Novel,1,yes
8,1,25,q,1.2572046669993142,2,140,53,1,Learned,1,yes
8,1,26,p,1.8174127919992316,2,66,43,1,Learned,0,yes
8,1,27,p,1.408414667002944,2,123,110,1,Learned,0,yes
8,1,28,p,1.9515167079989624,1,144,132,1,Learned,0,yes
8,1,29,p,1.433237833000021,3,21,101,0,Novel,1,yes
8,1,31,q,1.2641607910009045,1,105,142,1,Learned,1,yes
8,1,32,p,1.9069501660014792,1,56,98,1,Learned,0,yes
8,1,34,q,0.9456389999977546,2,139,28,1,Learned,1,yes
8,1,35,p,2.463090583001758,3,79,59,1,Learned,0,yes
8,1,36,p,2.2361854579976352,1,124,33,1,Learned,0,yes
8,1,37,p,1.804252082998573,1,102,72,1,Learned,0,yes
8,1,39,q,1.4108790409991343,3,91,93,1,Learned,1,yes
8,1,40,p,1.3958099170013156,1,114,49,0,Novel,1,yes
8,1,41,q,0.8651887500018347,1,53,145,1,Learned,1,yes
8,1,42,p,0.8565175410003576,2,29,9,0,Novel,1,yes
8,1,43,q,1.677958167001634,1,43,140,1,Learned,1,yes
8,1,44,q,1.7150822920011706,2,110,66,1,Learned,1,yes
8,1,45,p,1.160928250003053,3,113,123,0,Novel,1,yes
8,1,46,q,2.441967750000913,2,25,144,0,Novel,0,yes
8,1,47,q,1.5848215419973712,1,132,105,1,Learned,1,yes
8,1,48,p,1.8916777089980312,2,13,56,0,Novel,1,yes
8,1,49,q,1.580595457999152,2,101,82,1,Learned,1,yes
8,1,50,p,1.7885868750017837,2,2,139,1,Learned,0,yes
8,1,51,p,1.3262320419999014,3,22,79,0,Novel,1,yes
8,1,53,p,1.0580627499984985,3,111,102,0,Novel,1,yes
8,1,54,p,1.3492195830003766,2,10,91,0,Novel,1,yes
8,1,57,p,2.186999209003261,2,109,110,0,Novel,1,yes
8,1,59,p,1.372398625000642,3,104,101,0,Novel,1,yes
8,1,60,p,1.466137667001021,1,115,2,0,Novel,1,yes
8,2,2,p,1.8605176249984652,3,125,98,0,Novel,1,yes
8,2,3,q,1.473398416001146,2,56,23,1,Learned,1,yes
8,2,4,p,1.321558791998541,3,32,28,0,Novel,1,yes
8,2,5,q,1.8067334580009629,1,23,59,1,Learned,1,yes
8,2,6,q,1.3690723749969038,1,66,33,1,Learned,1,yes
8,2,7,p,1.4940502499994182,1,126,72,0,Novel,1,yes
8,2,8,q,1.4014892499981215,1,140,36,1,Learned,1,yes
8,2,9,q,1.4087722500007658,3,139,93,1,Learned,1,yes
8,2,11,p,1.79725375000271,1,52,145,0,Novel,1,yes
8,2,14,p,2.062687541998457,3,41,66,0,Novel,1,yes
8,2,15,q,1.4050741669998388,1,33,123,1,Learned,1,yes
8,2,16,p,1.6307091659982689,2,51,144,0,Novel,1,yes
8,2,17,p,1.856176332999894,2,42,105,0,Novel,1,yes
8,2,18,p,1.882791707997967,3,64,56,0,Novel,1,yes
8,2,19,q,1.47576191600092,2,91,82,1,Learned,1,yes
8,2,20,p,1.5810156670013384,1,119,139,0,Novel,1,yes
8,2,21,p,1.3662287089973688,1,72,79,1,Learned,0,yes
8,2,22,p,2.49013129100058,2,49,124,1,Learned,0,yes
8,2,23,p,1.230662416000996,3,38,102,0,Novel,1,yes
8,2,24,q,1.4416962079994846,3,110,91,1,Learned,1,yes
8,2,25,p,1.2767774580024709,2,142,53,1,Learned,0,yes
8,2,27,q,1.6807290420001664,1,2,110,1,Learned,1,yes
8,2,28,p,1.8435030830005417,2,43,132,1,Learned,0,yes
8,2,30,p,2.37074579199907,1,117,2,0,Novel,1,yes
8,2,31,p,1.937043625002843,2,44,142,0,Novel,1,yes
8,2,32,q,1.683942042000126,3,105,98,1,Learned,1,yes
8,2,34,q,1.6756776670008549,1,93,28,1,Learned,1,yes
8,2,35,p,1.7144810419995338,1,116,59,0,Novel,1,yes
8,2,36,q,2.403494624999439,1,145,33,1,Learned,1,yes
8,2,37,p,2.237021042001288,1,57,72,0,Novel,1,yes
8,2,39,p,1.3142026669993356,3,45,93,0,Novel,1,yes
8,2,40,p,1.5012434579984983,1,129,49,0,Novel,1,yes
8,2,41,p,1.6327422079993994,2,47,145,0,Novel,1,yes
8,2,42,p,1.7642240409986698,1,122,9,0,Novel,1,yes
8,2,44,p,1.199018333998538,3,118,66,0,Novel,1,yes
8,2,45,p,2.436628125000425,2,28,123,1,Learned,0,yes
8,2,46,p,1.4951090829999885,1,123,144,1,Learned,0,yes
8,2,47,p,1.652039042000979,3,60,105,0,Novel,1,yes
8,2,49,p,1.5681600000025355,1,39,82,0,Novel,1,yes
8,2,52,p,1.4728400829990278,3,144,124,1,Learned,0,yes
8,2,53,q,1.7496681249976973,3,37,102,0,Novel,0,yes
8,2,54,p,2.090893459000654,1,61,91,0,Novel,1,yes
8,2,55,q,1.4215703749978277,3,9,53,1,Learned,1,yes
8,2,56,q,1.2532667909981683,1,101,43,1,Learned,1,yes
8,2,57,p,1.7252166669968574,2,124,110,1,Learned,0,yes
8,2,58,q,2.088830707998568,3,98,132,1,Learned,1,yes
8,2,59,q,1.13109829199675,1,59,101,1,Learned,1,yes
8,3,2,q,1.800274500001251,3,132,98,1,Learned,1,yes
8,3,3,p,1.6584222080018662,2,93,23,1,Learned,0,yes
8,3,4,q,1.5220204159995774,1,36,28,1,Learned,1,yes
8,3,5,p,1.1583789579999575,1,80,59,0,Novel,1,yes
8,3,6,q,1.214180082999519,3,33,33,1,Learned,1,yes
8,3,7,q,1.0339385410006798,3,101,72,1,Learned,1,yes
8,3,8,p,2.1441911670008267,1,83,36,0,Novel,1,yes
8,3,9,p,2.0424055830008,3,73,93,0,Novel,1,yes
8,3,10,p,2.4567552090011304,2,72,49,1,Learned,0,yes
8,3,11,p,2.1094758340004773,3,95,145,0,Novel,1,yes
8,3,12,q,1.1736867079998774,1,98,9,1,Learned,1,yes
8,3,13,p,1.1625050000002377,2,143,140,0,Novel,1,yes
8,3,14,p,1.3171041249988775,2,77,66,0,Novel,1,yes
8,3,15,p,2.192957708000904,1,28,123,1,Learned,0,yes
8,3,16,q,1.6874059159999888,1,142,144,1,Learned,1,yes
8,3,19,q,1.1889031669998076,2,59,82,1,Learned,1,yes
8,3,20,p,1.3286914579985023,1,92,139,0,Novel,1,yes
8,3,21,q,1.5249850830005016,2,9,79,1,Learned,1,yes
8,3,23,p,1.3181188339985963,1,136,102,0,Novel,1,yes
8,3,24,p,1.6224545000004582,3,23,91,1,Learned,0,yes
8,3,26,p,1.328939667000668,2,144,43,1,Learned,0,yes
8,3,27,q,1.7761304580017168,3,102,110,1,Learned,1,yes
8,3,28,p,1.5198698339991097,2,94,132,0,Novel,1,yes
8,3,29,p,1.351709750000737,2,74,101,0,Novel,1,yes
8,3,30,p,1.6759469580028965,1,138,2,0,Novel,1,yes
8,3,31,p,2.3085852920012258,3,56,142,1,Learned,0,yes
8,3,32,p,1.5159968749976542,1,81,98,0,Novel,1,yes
8,3,33,p,1.2189732499973616,1,88,23,0,Novel,1,yes
8,3,34,q,1.2147752919991035,3,140,28,1,Learned,1,yes
8,3,35,p,1.8830215420020977,2,147,59,0,Novel,1,yes
8,3,36,p,1.2188788749990636,2,141,33,0,Novel,1,yes
8,3,38,q,1.4826014999998731,2,145,36,1,Learned,1,yes
8,3,39,p,2.37314754199906,3,2,93,1,Learned,0,yes
8,3,40,p,1.7554027080004744,2,90,49,0,Novel,1,yes
8,3,42,p,1.9276443750022736,2,70,9,0,Novel,1,yes
8,3,43,p,1.770537000000331,3,124,140,1,Learned,0,yes
8,3,45,p,1.4686823330011975,2,76,123,0,Novel,1,yes
8,3,46,q,1.297627874999307,1,79,144,1,Learned,1,yes
8,3,49,q,2.0823537910000596,3,49,82,1,Learned,1,yes
8,3,50,q,2.288948583001911,1,110,139,1,Learned,1,yes
8,3,51,p,1.7824313329983852,1,131,79,0,Novel,1,yes
8,3,52,p,1.3509294590003265,2,97,124,0,Novel,1,yes
8,3,53,q,1.6624055840002256,1,139,102,1,Learned,1,yes
8,3,54,q,1.796523666002031,1,91,91,1,Learned,1,yes
8,3,55,p,1.925426415997208,1,130,53,0,Novel,1,yes
8,3,56,p,2.0361638340000354,2,84,43,0,Novel,1,yes
8,3,59,p,1.7404631660028826,3,134,101,0,Novel,1,yes
8,3,60,p,1.7857655829975556,1,89,2,0,Novel,1,yes
9,1,2,p,2.1170542090001163,2,7,57,0,Novel,1,yes
9,1,3,q,0.8205668339999193,1,57,28,1,Learned,1,yes
9,1,4,p,1.9487812499999109,3,29,50,0,Novel,1,yes
9,1,5,p,1.3506074580000131,1,108,33,0,Novel,1,yes
9,1,6,q,1.4583620000000792,1,11,20,0,Novel,0,yes
9,1,7,q,0.9524569169998358,2,28,115,1,Learned,1,yes
9,1,8,p,1.1161236250000002,3,25,73,0,Novel,1,yes
9,1,9,q,1.055913124999961,3,50,32,1,Learned,1,yes
9,1,10,p,1.026621250000062,1,27,2,0,Novel,1,yes
9,1,11,p,0.8573016660000121,3,23,66,0,Novel,1,yes
9,1,12,p,0.748163083999998,3,18,4,0,Novel,1,yes
9,1,13,q,1.543398915999887,3,113,90,0,Novel,0,yes
9,1,14,p,0.7564964590001182,1,19,135,0,Novel,1,yes
9,1,15,p,0.9737365829998909,3,33,75,1,Learned,0,yes
9,1,16,q,1.082858041999998,3,1,76,0,Novel,0,yes
9,1,17,q,0.8750305419998767,3,20,143,1,Learned,1,yes
9,1,18,q,1.0461972909999986,3,115,94,1,Learned,1,yes
9,1,19,q,0.7816060830000424,2,73,125,1,Learned,1,yes
9,1,20,q,0.8676390420000644,2,32,120,1,Learned,1,yes
9,1,21,p,0.8668822920001276,1,109,129,0,Novel,1,yes
9,1,22,p,0.7472860840000521,3,9,89,0,Novel,1,yes
9,1,23,p,1.5478515419999894,1,16,30,0,Novel,1,yes
9,1,24,p,1.170195333000038,1,26,105,0,Novel,1,yes
9,1,25,p,1.7798586670000986,3,13,49,0,Novel,1,yes
9,1,26,p,0.9711226669999178,3,36,128,0,Novel,1,yes
9,1,27,q,0.7679136250001193,2,2,102,1,Learned,1,yes
9,1,28,q,0.7907989590000852,3,66,88,1,Learned,1,yes
9,1,30,p,1.0375621250000222,2,110,148,0,Novel,1,yes
9,1,31,p,2.1491462499998306,1,111,140,0,Novel,1,yes
9,1,32,p,0.7618518750000476,1,104,57,0,Novel,1,yes
9,1,33,p,0.8307505840000431,1,112,28,0,Novel,1,yes
9,1,34,q,0.7193354999999428,1,4,50,1,Learned,1,yes
9,1,35,p,0.6502400829999715,3,37,33,0,Novel,1,yes
9,1,36,p,1.2052437080001257,3,114,20,0,Novel,1,yes
9,1,37,q,0.7293634579998525,2,90,115,1,Learned,1,yes
9,1,38,p,1.0597632080000494,3,14,73,0,Novel,1,yes
9,1,39,q,2.4324208329999237,1,135,32,1,Learned,1,yes
9,1,40,q,1.2507580000001326,3,75,2,1,Learned,1,yes
9,1,41,p,1.4013597919999938,2,12,66,0,Novel,1,yes
9,1,42,q,0.843762125000012,1,76,4,1,Learned,1,yes
9,1,43,q,0.7302138329998797,3,143,90,1,Learned,1,yes
9,1,44,q,1.5372776250001152,3,107,135,0,Novel,0,yes
9,1,45,p,1.295033999999987,3,21,75,0,Novel,1,yes
9,1,46,p,0.9541010829998412,1,17,76,0,Novel,1,yes
9,1,47,q,1.1658623749999606,3,94,143,1,Learned,1,yes
9,1,48,p,1.0240092080000522,2,10,94,0,Novel,1,yes
9,1,49,q,1.9022524580000209,3,125,125,1,Learned,1,yes
9,1,51,p,2.1817922919999546,2,129,129,1,Learned,0,yes
9,1,52,q,1.2797685840000668,1,89,89,1,Learned,1,yes
9,1,53,p,1.160454958000173,1,30,30,1,Learned,0,yes
9,1,54,q,0.923029583000016,2,105,105,1,Learned,1,yes
9,1,55,p,1.1998000839998897,3,49,49,1,Learned,0,yes
9,1,57,p,1.381427082999835,1,102,102,1,Learned,0,yes
9,1,59,q,0.9013113329999668,3,22,22,1,Learned,1,yes
9,1,60,q,0.879338166000025,3,148,148,1,Learned,1,yes
9,2,2,p,1.7040611670001908,3,64,57,0,Novel,1,yes
9,2,3,p,0.7727493330000925,2,38,28,0,Novel,1,yes
9,2,4,p,1.0139811250001003,3,131,50,0,Novel,1,yes
9,2,5,p,1.0531591670001037,1,51,33,0,Novel,1,yes
9,2,6,q,1.3081985000001168,1,20,20,1,Learned,1,yes
9,2,7,p,1.088336874999868,1,33,115,1,Learned,0,yes
9,2,8,p,1.8112977079999837,3,52,73,0,Novel,1,yes
9,2,9,p,1.003426750000017,1,43,32,0,Novel,1,yes
9,2,10,q,0.8180019169999468,1,2,2,1,Learned,1,yes
9,2,11,q,0.7905383750000965,1,50,66,1,Learned,1,yes
9,2,13,p,0.9779971670000124,2,56,90,0,Novel,1,yes
9,2,14,p,1.722595582999929,2,69,135,0,Novel,1,yes
9,2,15,p,0.8019454589998531,1,90,75,1,Learned,0,yes
9,2,16,p,0.6632207079999262,1,28,76,1,Learned,0,yes
9,2,17,q,0.9357882909998808,1,94,143,1,Learned,1,yes
9,2,19,p,0.9317936249999548,1,49,125,1,Learned,0,yes
9,2,20,p,0.768684291999989,3,4,120,1,Learned,0,yes
9,2,21,p,0.8703617500000291,1,53,129,0,Novel,1,yes
9,2,22,p,0.6538540840001588,2,41,89,0,Novel,1,yes
9,2,24,p,0.6682018750000225,3,59,105,0,Novel,1,yes
9,2,25,q,1.843750499999942,3,135,49,1,Learned,1,yes
9,2,27,q,1.0883579579999605,2,115,102,1,Learned,1,yes
9,2,28,p,1.0929807499999242,1,129,88,1,Learned,0,yes
9,2,29,q,2.45993020800006,3,120,22,1,Learned,1,yes
9,2,30,p,0.6783390420000615,2,45,148,0,Novel,1,yes
9,2,31,p,1.5430367910000768,2,124,140,0,Novel,1,yes
9,2,32,p,0.6660535830001209,3,130,57,0,Novel,1,yes
9,2,33,p,0.6004890419999356,3,42,28,0,Novel,1,yes
9,2,34,p,0.7865113750001456,2,62,50,0,Novel,1,yes
9,2,35,q,0.826629500000081,3,76,33,1,Learned,1,yes
9,2,36,p,1.3507022080000295,2,118,20,0,Novel,1,yes
9,2,38,p,0.988274666000052,1,126,73,0,Novel,1,yes
9,2,39,q,1.2600913339999806,3,140,32,1,Learned,1,yes
9,2,40,p,0.8986902090000513,2,66,2,1,Learned,0,yes
9,2,41,p,0.869370624999874,2,44,66,0,Novel,1,yes
9,2,42,p,0.9662242090000746,1,75,4,1,Learned,0,yes
9,2,43,p,1.043570499999987,2,116,90,0,Novel,1,yes
9,2,44,p,0.8760521670001253,3,61,135,0,Novel,1,yes
9,2,46,p,1.5486932919998253,2,102,76,1,Learned,0,yes
9,2,47,p,0.8583066250000684,2,68,143,0,Novel,1,yes
9,2,49,p,1.110342707999962,3,123,125,0,Novel,1,yes
9,2,50,q,0.8074384589999681,1,125,120,1,Learned,1,yes
9,2,51,p,0.9568133340001168,2,122,129,0,Novel,1,yes
9,2,52,p,0.8420722500000011,2,39,89,0,Novel,1,yes
9,2,53,q,1.957307208999964,2,60,30,0,Novel,0,yes
9,2,55,p,1.950424166000175,1,32,49,1,Learned,0,yes
9,2,56,p,1.4530026670001917,3,73,128,1,Learned,0,yes
9,2,57,p,1.2218167089999952,1,88,102,1,Learned,0,yes
9,2,58,q,0.7941226660000211,1,143,88,1,Learned,1,yes
9,2,59,p,1.0242887910001173,3,89,22,1,Learned,0,yes
9,2,60,q,1.0658337499999109,1,22,148,1,Learned,1,yes
9,3,2,p,0.8187983749999148,3,128,57,1,Learned,0,yes
9,3,3,p,1.5216344580001078,2,89,28,1,Learned,0,yes
9,3,4,p,1.0477392919999602,1,82,50,0,Novel,1,yes
9,3,5,p,1.537242957999979,1,138,33,0,Novel,1,yes
9,3,6,q,0.7255425840000953,2,125,20,1,Learned,1,yes
9,3,7,p,1.0242240420000144,1,66,115,1,Learned,0,yes
9,3,8,q,0.7186717499998849,2,22,73,1,Learned,1,yes
9,3,9,p,0.8063798329999372,2,20,32,1,Learned,0,yes
9,3,10,p,0.7175038329999097,1,98,2,0,Novel,1,yes
9,3,11,p,0.6876049999998486,2,139,66,0,Novel,1,yes
9,3,12,p,0.7493300839998938,2,71,4,0,Novel,1,yes
9,3,13,p,1.8388845000001768,1,146,90,0,Novel,1,yes
9,3,14,p,0.7861790829999791,2,84,135,0,Novel,1,yes
9,3,15,p,0.5966462920000595,2,142,75,0,Novel,1,yes
9,3,16,p,1.9964942499998417,1,74,76,0,Novel,1,yes
9,3,17,p,0.8722595420001653,3,97,143,0,Novel,1,yes
9,3,18,q,0.8569595419999132,2,140,94,1,Learned,1,yes
9,3,19,q,0.7897681249999096,2,94,125,1,Learned,1,yes
9,3,20,p,1.249879749999991,2,49,120,1,Learned,0,yes
9,3,22,p,1.393214665999949,2,120,89,1,Learned,0,yes
9,3,24,p,2.1962343339998824,1,73,105,1,Learned,0,yes
9,3,25,p,1.15616858400017,3,90,49,1,Learned,0,yes
9,3,26,p,0.7368672909999532,3,80,128,0,Novel,1,yes
9,3,27,q,0.9466506250000748,3,28,102,1,Learned,1,yes
9,3,28,p,0.6580462079998597,1,91,88,0,Novel,1,yes
9,3,29,p,0.6353409580001426,2,132,22,0,Novel,1,yes
9,3,31,p,0.7293451660000301,3,144,140,0,Novel,1,yes
9,3,32,p,1.5435027080000054,3,88,57,1,Learned,0,yes
9,3,33,p,0.8987600830000702,1,77,28,0,Novel,1,yes
9,3,34,q,1.1372796660000404,1,105,50,1,Learned,1,yes
9,3,35,p,0.7299545000000762,2,95,33,0,Novel,1,yes
9,3,36,p,1.0834128750000218,3,129,20,1,Learned,0,yes
9,3,37,p,0.6897522919998664,1,72,115,0,Novel,1,yes
9,3,38,q,1.5028596660001767,2,76,73,1,Learned,1,yes
9,3,39,p,0.6914560830000482,3,32,32,1,Learned,0,yes
9,3,40,p,1.3470324160000473,2,141,2,0,Novel,1,yes
9,3,41,p,0.8531450000000405,2,81,66,0,Novel,1,yes
9,3,42,p,1.0186630000000605,1,70,4,0,Novel,1,yes
9,3,43,p,1.2457726249999723,3,79,90,0,Novel,1,yes
9,3,44,p,0.6017619589999867,3,93,135,0,Novel,1,yes
9,3,45,p,0.7984474579998277,3,145,75,0,Novel,1,yes
9,3,46,p,0.8724064589998761,1,87,76,0,Novel,1,yes
9,3,47,q,1.0163964170001236,1,115,143,1,Learned,1,yes
9,3,48,p,0.9844582499999888,3,78,94,0,Novel,1,yes
9,3,50,p,0.8725587080000423,2,4,120,1,Learned,0,yes
9,3,51,q,0.8598605829999997,1,148,129,1,Learned,1,yes
9,3,52,p,0.7583281659999557,3,100,89,0,Novel,1,yes
9,3,53,p,0.6932017079998332,3,92,30,0,Novel,1,yes
9,3,54,p,1.2039762920001067,2,136,105,0,Novel,1,yes
9,3,56,p,0.8105191659999491,2,30,128,1,Learned,0,yes
9,3,57,p,0.606248542000003,2,83,102,0,Novel,1,yes
9,3,58,p,1.5015886249998402,3,102,88,1,Learned,0,yes
9,3,59,q,0.9214796250000744,2,143,22,1,Learned,1,yes
9,3,60,p,1.039002666999977,2,75,148,1,Learned,0,yes
10,1,1,p,1.7213956250002411,2,23,100,0,Novel,1,yes
10,1,2,q,1.412722125000073,3,25,118,0,Novel,0,yes
10,1,3,q,0.8987601660001019,1,100,136,1,Learned,1,yes
10,1,4,p,1.9028849169999376,3,118,78,1,Learned,0,yes
10,1,5,q,0.7499804580002092,3,136,87,1,Learned,1,yes
10,1,6,p,2.208407999999963,3,78,77,1,Learned,0,yes
10,1,7,q,1.440650000000005,3,1,126,0,Novel,0,yes
10,1,8,p,2.326043208000101,1,10,93,0,Novel,1,yes
10,1,9,p,0.8739512080001077,2,4,38,0,Novel,1,yes
10,1,10,q,1.6982557080000331,3,13,2,0,Novel,0,yes
10,1,11,q,1.3129192090000288,3,87,143,1,Learned,1,yes
10,1,12,p,1.4638612500002637,3,12,27,0,Novel,1,yes
10,1,13,q,1.0252458750001097,3,77,49,1,Learned,1,yes
10,1,14,q,1.347998541999914,2,126,68,1,Learned,1,yes
10,1,15,q,0.8638951249999991,3,93,66,1,Learned,1,yes
10,1,16,p,1.342879875000108,1,114,59,0,Novel,1,yes
10,1,17,p,1.0739445419999356,3,22,61,0,Novel,1,yes
10,1,18,q,0.8305272499997045,3,38,151,1,Learned,1,yes
10,1,19,p,1.940511916000105,3,111,18,0,Novel,1,yes
10,1,20,q,0.8138107080003465,1,2,112,1,Learned,1,yes
10,1,21,p,1.0770554160003485,3,104,132,0,Novel,1,yes
10,1,22,q,0.93973379199997,2,143,147,1,Learned,1,yes
10,1,23,p,1.5233077079997202,1,9,64,0,Novel,1,yes
10,1,24,q,0.7122391249999964,2,27,75,1,Learned,1,yes
10,1,25,q,0.9428148340002735,1,49,90,1,Learned,1,yes
10,1,26,q,1.0290706249998038,3,68,113,1,Learned,1,yes
10,1,27,p,0.7774516670001503,2,21,141,0,Novel,1,yes
10,1,28,q,0.8054475419999108,1,66,47,1,Learned,1,yes
10,1,29,q,0.8045093750001797,1,59,71,1,Learned,1,yes
10,1,30,q,1.354157000000214,3,61,19,1,Learned,1,yes
10,1,31,q,2.447256667000147,3,151,100,1,Learned,1,yes
10,1,33,p,0.9198801249999632,3,17,136,0,Novel,1,yes
10,1,34,p,1.2626717090001875,3,14,78,0,Novel,1,yes
10,1,35,q,0.9936442079997504,3,112,87,1,Learned,1,yes
10,1,36,q,0.9406167089996416,3,132,77,1,Learned,1,yes
10,1,37,p,1.1577710830001706,3,28,126,0,Novel,1,yes
10,1,38,p,0.8420045410002786,2,115,93,0,Novel,1,yes
10,1,39,q,0.7534633750001376,1,147,38,1,Learned,1,yes
10,1,41,p,0.9287064589998408,2,7,143,0,Novel,1,yes
10,1,43,q,0.9204511249999996,1,90,49,1,Learned,1,yes
10,1,44,q,1.462238583999806,3,113,68,1,Learned,1,yes
10,1,46,p,1.0437722910000955,3,20,59,0,Novel,1,yes
10,1,47,q,1.0023096249997252,1,47,61,1,Learned,1,yes
10,1,48,p,0.8847951249999824,2,109,151,0,Novel,1,yes
10,1,49,q,1.141518165999969,2,71,18,1,Learned,1,yes
10,1,50,q,0.990662125000199,2,19,112,1,Learned,1,yes
10,1,51,p,1.2682469169999422,1,105,132,0,Novel,1,yes
10,1,52,p,2.4543030830000134,3,107,147,0,Novel,1,yes
10,1,53,p,1.834189042000162,2,110,64,0,Novel,1,yes
10,1,54,p,1.987111417000051,2,26,75,0,Novel,1,yes
10,1,55,q,0.8535161660001904,2,29,90,0,Novel,0,yes
10,1,58,p,1.3985979999997653,1,16,47,0,Novel,1,yes
10,1,60,q,1.166518250000081,3,11,19,0,Novel,0,yes
10,2,1,p,1.6665753749998655,2,41,100,0,Novel,1,yes
10,2,2,p,1.4177013749999787,1,37,118,0,Novel,1,yes
10,2,3,q,0.8671718339996914,3,60,136,0,Novel,0,yes
10,2,4,q,1.1443666669997583,2,132,78,1,Learned,1,yes
10,2,5,q,1.7138626249998197,1,56,87,0,Novel,0,yes
10,2,6,q,0.9011752500000512,1,68,77,1,Learned,1,yes
10,2,7,q,0.9296211250002672,3,90,126,1,Learned,1,yes
10,2,8,q,0.972974959000112,3,49,93,1,Learned,1,yes
10,2,9,q,1.0296663330000229,1,141,38,1,Learned,1,yes
10,2,10,q,0.9025065410000934,2,77,2,1,Learned,1,yes
10,2,12,p,1.3173744999999144,3,39,27,0,Novel,1,yes
10,2,13,q,0.9457896670000993,3,126,49,1,Learned,1,yes
10,2,14,p,1.6647164159999193,1,43,68,0,Novel,1,yes
10,2,15,q,0.8194646669999202,1,64,66,1,Learned,1,yes
10,2,16,q,0.8400392910002665,1,71,59,1,Learned,1,yes
10,2,17,q,0.8448191669999687,1,136,61,1,Learned,1,yes
10,2,18,q,1.1461797500001012,2,147,151,1,Learned,1,yes
10,2,19,q,1.3057710420002877,2,18,18,1,Learned,1,yes
10,2,20,p,1.1646368749998146,2,45,112,0,Novel,1,yes
10,2,22,p,1.7614111670000057,2,120,147,0,Novel,1,yes
10,2,23,q,1.7130544999999984,2,66,64,1,Learned,1,yes
10,2,24,q,1.6956436669997856,1,75,75,1,Learned,1,yes
10,2,25,q,1.3585165419999612,1,143,90,1,Learned,1,yes
10,2,27,p,0.9163308329998472,3,33,141,0,Novel,1,yes
10,2,28,p,0.7955817919996662,2,57,47,0,Novel,1,yes
10,2,29,q,1.1782949590001408,2,2,71,1,Learned,1,yes
10,2,30,p,0.8929034580000916,3,42,19,0,Novel,1,yes
10,2,31,q,1.1103686249998646,1,19,100,1,Learned,1,yes
10,2,33,p,0.7486947919996965,1,128,136,0,Novel,1,yes
10,2,35,q,1.049310208999941,2,38,87,1,Learned,1,yes
10,2,37,p,1.4900286249999226,1,62,126,0,Novel,1,yes
10,2,38,q,1.536383915999977,1,151,93,1,Learned,1,yes
10,2,39,p,1.1052795000000517,1,67,38,0,Novel,1,yes
10,2,40,q,0.8586783749997267,1,27,2,1,Learned,1,yes
10,2,41,q,1.317276541999945,1,61,143,1,Learned,1,yes
10,2,42,q,0.9264079159997892,1,113,27,1,Learned,1,yes
10,2,43,p,1.9083699579996392,3,50,49,0,Novel,1,yes
10,2,44,p,2.0647354580000865,3,47,68,1,Learned,0,yes
10,2,47,q,1.2146697080002014,2,87,61,1,Learned,1,yes
10,2,52,q,1.23333754100031,1,112,147,1,Learned,1,yes
10,2,53,q,0.9549232079998546,2,59,64,1,Learned,1,yes
10,2,55,p,0.9704913750001652,2,116,90,0,Novel,1,yes
10,2,56,p,1.7010780840000734,3,117,113,0,Novel,1,yes
10,2,57,p,0.855092415999934,3,124,141,0,Novel,1,yes
10,2,59,p,0.9436387920000016,3,44,71,0,Novel,1,yes
10,2,60,q,0.9086690409999392,2,125,19,0,Novel,0,yes
10,3,1,q,1.5435854170000312,1,77,100,1,Learned,1,yes
10,3,3,p,2.2113040410004032,2,89,136,0,Novel,1,yes
10,3,4,q,0.8028267909999158,1,93,78,1,Learned,1,yes
10,3,5,q,0.8884567499999321,3,66,87,1,Learned,1,yes
10,3,6,p,1.0232084170002054,3,98,77,0,Novel,1,yes
10,3,7,q,0.7021870829998988,3,19,126,1,Learned,1,yes
10,3,10,p,1.7972612080002364,3,130,2,0,Novel,1,yes
10,3,11,q,0.8882077079997543,1,140,143,0,Novel,0,yes
10,3,12,q,1.1808054170001014,2,90,27,1,Learned,1,yes
10,3,14,q,0.8617652500001896,2,141,68,1,Learned,1,yes
10,3,15,q,1.923638457999914,2,134,66,0,Novel,0,yes
10,3,16,q,1.3692458340001394,1,132,59,1,Learned,1,yes
10,3,17,q,0.8972742910000306,1,126,61,1,Learned,1,yes
10,3,18,q,0.697529042000042,1,87,151,1,Learned,1,yes
10,3,20,q,1.0082301659999755,2,136,112,1,Learned,1,yes
10,3,21,q,0.9097232909998638,3,100,132,1,Learned,1,yes
10,3,22,q,1.2626279999999497,1,38,147,1,Learned,1,yes
10,3,23,p,0.9260504580001908,3,76,64,0,Novel,1,yes
10,3,24,p,1.190281916999993,2,72,75,0,Novel,1,yes
10,3,25,q,0.8665326669997739,3,2,90,1,Learned,1,yes
10,3,26,q,1.1268581250001262,2,49,113,1,Learned,1,yes
10,3,27,q,0.7611059159999058,2,112,141,1,Learned,1,yes
10,3,28,q,0.782462791999933,3,147,47,1,Learned,1,yes
10,3,29,q,0.6753092089998063,3,27,71,1,Learned,1,yes
10,3,30,p,1.8121979170000488,2,88,19,0,Novel,1,yes
10,3,32,q,1.74060766599996,1,78,118,1,Learned,1,yes
10,3,33,q,0.7490114170000197,3,75,136,1,Learned,1,yes
10,3,34,p,1.6259906670002238,2,70,78,0,Novel,1,yes
10,3,35,q,1.177049458000056,2,47,87,1,Learned,1,yes
10,3,37,q,0.9355431669996506,2,151,126,1,Learned,1,yes
10,3,39,q,0.7538445830000455,2,113,38,1,Learned,1,yes
10,3,40,p,1.552308667000034,3,83,2,0,Novel,1,yes
10,3,41,q,1.023761458000081,3,92,143,0,Novel,0,yes
10,3,42,q,0.8524377499998081,2,68,27,1,Learned,1,yes
10,3,43,p,1.1287941250002405,1,139,49,0,Novel,1,yes
10,3,44,p,1.781066125000052,1,84,68,0,Novel,1,yes
10,3,45,p,1.3064692910002125,2,144,66,0,Novel,1,yes
10,3,46,q,0.9154383750001216,3,71,59,1,Learned,1,yes
10,3,47,p,1.401416749999953,1,145,61,0,Novel,1,yes
10,3,48,q,0.9765336249997744,3,64,151,1,Learned,1,yes
10,3,49,p,1.1265017910000097,2,94,18,0,Novel,1,yes
10,3,50,p,2.4115768750002644,1,142,112,0,Novel,1,yes
10,3,51,q,0.9805804580000768,1,118,132,1,Learned,1,yes
10,3,53,p,1.2866132500003005,3,80,64,0,Novel,1,yes
10,3,54,q,1.180377333999786,3,59,75,1,Learned,1,yes
10,3,55,p,1.1049711249997929,1,138,90,0,Novel,1,yes
10,3,57,p,1.5638250420001896,2,82,141,0,Novel,1,yes
10,3,58,q,0.6710026669998115,3,143,47,1,Learned,1,yes
10,3,59,p,1.4953476660002707,2,101,71,0,Novel,1,yes
10,3,60,q,1.1153602919998775,2,61,19,1,Learned,1,yes
11,1,1,q,0.7836867079968215,2,111,111,1,Learned,1,yes
11,1,2,q,0.6360794169995643,3,13,33,0,Novel,0,yes
11,1,3,p,0.7172036250012752,1,116,79,0,Novel,1,yes
11,1,4,p,1.209629083001346,2,114,1,0,Novel,1,yes
11,1,5,q,0.670730874997389,1,33,113,1,Learned,1,yes
11,1,6,q,0.6023579159991641,1,79,112,1,Learned,1,yes
11,1,7,q,1.0158137079997689,2,1,73,1,Learned,1,yes
11,1,8,q,0.6849718339981337,3,113,110,1,Learned,1,yes
11,1,9,q,0.7719166249989939,2,25,77,0,Novel,0,yes
11,1,10,p,0.7212284170018393,1,37,129,0,Novel,1,yes
11,1,11,q,0.920721542002866,2,112,17,1,Learned,1,yes
11,1,12,p,1.001184374999866,3,4,134,0,Novel,1,yes
11,1,13,p,1.0261387079990527,3,106,44,0,Novel,1,yes
11,1,14,q,0.6989725409985112,1,19,9,0,Novel,0,yes
11,1,15,q,1.0383759160031332,3,73,123,1,Learned,1,yes
11,1,16,q,0.904754208000668,3,26,60,0,Novel,0,yes
11,1,17,q,0.9039397910019034,2,110,7,1,Learned,1,yes
11,1,18,p,1.1272195409983397,2,108,53,0,Novel,1,yes
11,1,19,p,1.1899074579996525,1,28,144,0,Novel,1,yes
11,1,20,q,0.8191220000007888,3,20,50,0,Novel,0,yes
11,1,21,q,0.7218945829990844,3,77,27,1,Learned,1,yes
11,1,22,q,0.9161275000005844,2,129,140,1,Learned,1,yes
11,1,23,q,1.4009958339993318,3,11,64,0,Novel,0,yes
11,1,24,q,1.1072567919982248,1,17,12,1,Learned,1,yes
11,1,25,p,1.6426571660012996,1,134,136,1,Learned,0,yes
11,1,26,q,1.363278333999915,2,44,30,1,Learned,1,yes
11,1,27,p,1.645445334001124,1,14,90,0,Novel,1,yes
11,1,28,q,1.5991987499983225,2,22,43,0,Novel,0,yes
11,1,29,q,1.9574011669974425,3,9,61,1,Learned,1,yes
11,1,30,p,1.4078406660009932,3,123,83,1,Learned,0,yes
11,1,31,q,1.0605101250002915,1,60,111,1,Learned,1,yes
11,1,32,p,1.6538474170010886,3,23,33,0,Novel,1,yes
11,1,33,q,1.5043950420003966,2,7,79,1,Learned,1,yes
11,1,34,q,1.5904704999993555,3,53,1,1,Learned,1,yes
11,1,35,p,1.1764989579969551,2,144,113,1,Learned,0,yes
11,1,36,p,1.9377217500004915,1,36,112,0,Novel,1,yes
11,1,37,q,0.9656067500000064,1,50,73,1,Learned,1,yes
11,1,38,q,1.3314339169992309,1,27,110,1,Learned,1,yes
11,1,39,p,2.461969792002492,2,140,77,1,Learned,0,yes
11,1,40,p,1.5296544580014595,2,115,129,0,Novel,1,yes
11,1,41,q,0.9684245419994112,3,64,17,1,Learned,1,yes
11,1,42,p,0.976835667002888,2,109,134,0,Novel,1,yes
11,1,43,p,1.2160797910000838,3,16,44,0,Novel,1,yes
11,1,44,q,0.8558269169989217,3,2,9,0,Novel,0,yes
11,1,45,q,1.0785002920019906,3,12,123,1,Learned,1,yes
11,1,46,p,1.791994582999905,1,107,60,0,Novel,1,yes
11,1,47,p,1.4392284589994233,3,136,7,1,Learned,0,yes
11,1,49,q,1.4981513749989972,2,18,144,0,Novel,0,yes
11,1,50,q,1.3469814169984602,1,117,50,0,Novel,0,yes
11,1,51,q,1.1366703749990847,3,10,27,0,Novel,0,yes
11,1,52,p,1.79698666600234,1,105,140,0,Novel,1,yes
11,1,53,q,0.9711573749991658,2,90,64,1,Learned,1,yes
11,1,54,p,0.8153218749976077,1,104,12,0,Novel,1,yes
11,1,55,q,1.727707999998529,1,29,136,0,Novel,0,yes
11,1,56,q,1.8064509169998928,3,43,30,1,Learned,1,yes
11,1,57,q,2.062658707996889,1,61,90,1,Learned,1,yes
11,1,58,p,1.7291919579984096,3,21,43,0,Novel,1,yes
11,1,59,q,1.3960696670001198,1,83,61,1,Learned,1,yes
11,1,60,p,1.2366510830033803,3,32,83,0,Novel,1,yes
11,2,1,q,1.0230325829979847,3,52,111,0,Novel,0,yes
11,2,2,p,0.994057250001788,2,73,33,1,Learned,0,yes
11,2,3,q,0.8398271250007383,2,50,79,1,Learned,1,yes
11,2,4,p,1.5030717500012545,2,66,1,0,Novel,1,yes
11,2,5,q,1.8322228329998325,3,131,113,0,Novel,0,yes
11,2,6,p,1.0185687500015774,1,39,112,0,Novel,1,yes
11,2,7,p,2.057595666999987,3,67,73,0,Novel,1,yes
11,2,8,q,0.946920250000403,2,122,110,0,Novel,0,yes
11,2,9,q,0.7999207920001936,1,7,77,1,Learned,1,yes
11,2,10,q,1.3599294999985432,1,140,129,1,Learned,1,yes
11,2,11,q,1.3597484579986483,3,90,17,1,Learned,1,yes
11,2,12,p,1.4965667910000775,2,123,134,1,Learned,0,yes
11,2,13,p,1.508731165999052,1,49,44,0,Novel,1,yes
11,2,14,q,1.3016625409982223,2,83,9,1,Learned,1,yes
11,2,15,q,1.99533291699845,1,71,123,0,Novel,0,yes
11,2,16,p,0.91728029099977,3,130,60,0,Novel,1,yes
11,2,17,p,1.3084477919983328,2,61,7,1,Learned,0,yes
11,2,18,q,1.817304749998584,1,120,53,0,Novel,0,yes
11,2,19,q,0.9621494589991926,2,77,144,1,Learned,1,yes
11,2,20,p,1.604099790998589,2,128,50,0,Novel,1,yes
11,2,21,q,0.804400084001827,2,68,27,0,Novel,0,yes
11,2,22,q,2.143276416001754,3,112,140,1,Learned,1,yes
11,2,23,p,2.243385333000333,1,124,64,0,Novel,1,yes
11,2,24,p,1.245325584000966,3,51,12,0,Novel,1,yes
11,2,25,q,1.048207084000751,2,70,136,0,Novel,0,yes
11,2,26,p,0.9237499580012808,1,38,30,0,Novel,1,yes
11,2,27,p,0.8331087910009956,1,59,90,0,Novel,1,yes
11,2,28,q,0.8703911249976954,1,56,43,0,Novel,0,yes
11,2,29,q,2.032637292002619,2,119,61,0,Novel,0,yes
11,2,31,p,0.8514987499984272,2,41,111,0,Novel,1,yes
11,2,32,q,1.9878696670020872,2,118,33,0,Novel,0,yes
11,2,33,q,1.9190682500011464,2,125,79,0,Novel,0,yes
11,2,34,p,1.0377768329999526,1,126,1,0,Novel,1,yes
11,2,35,q,1.8989328330026185,3,110,113,1,Learned,1,yes
11,2,36,p,1.1233104999992063,2,42,112,0,Novel,1,yes
11,2,37,q,1.0890617090008163,3,111,73,1,Learned,1,yes
11,2,38,q,2.289297916002397,1,12,110,1,Learned,1,yes
11,2,39,p,0.7661684999984573,3,72,77,0,Novel,1,yes
11,2,40,p,1.7943620829973952,1,57,129,0,Novel,1,yes
11,2,42,q,0.8035570829997596,1,1,134,1,Learned,1,yes
11,2,44,q,0.8995912909995241,1,64,9,1,Learned,1,yes
11,2,45,q,0.7066351249995932,3,27,123,1,Learned,1,yes
11,2,46,q,2.4180549580014485,3,47,60,0,Novel,0,yes
11,2,47,q,1.8853697499980624,2,45,7,0,Novel,0,yes
11,2,48,q,1.2470904580004571,3,60,53,1,Learned,1,yes
11,2,49,p,1.2171183749997,2,69,144,0,Novel,1,yes
11,2,50,q,1.0650687499983178,3,17,50,1,Learned,1,yes
11,2,51,p,1.708968625000125,1,30,27,1,Learned,0,yes
11,2,52,p,1.5868529170002148,3,33,140,1,Learned,0,yes
11,2,53,q,1.398667082998145,3,129,64,1,Learned,1,yes
11,2,54,p,2.062790458003292,2,134,12,1,Learned,0,yes
11,2,55,q,0.9697265419999894,2,53,136,1,Learned,1,yes
11,2,56,q,1.2825289169995813,2,9,30,1,Learned,1,yes
11,2,57,q,1.4063216670001566,3,79,90,1,Learned,1,yes
11,2,58,q,2.369927165997069,1,43,43,1,Learned,1,yes
11,2,59,q,0.859031166000932,2,113,61,1,Learned,1,yes
11,3,1,p,1.1395482500010985,3,132,111,0,Novel,1,yes
11,3,2,q,0.9349066670001775,1,100,33,0,Novel,0,yes
11,3,3,p,0.7780810410004051,2,92,79,0,Novel,1,yes
11,3,4,q,0.8189635829985491,3,7,1,1,Learned,1,yes
11,3,5,q,0.8169907499977853,1,113,113,1,Learned,1,yes
11,3,6,q,0.9791212080017432,3,87,112,0,Novel,0,yes
11,3,7,q,0.9278176670013636,1,53,73,1,Learned,1,yes
11,3,8,p,1.1323199159996875,3,78,110,0,Novel,1,yes
11,3,9,p,0.9855858339979022,1,135,77,0,Novel,1,yes
11,3,10,q,1.9884181669985992,1,138,129,0,Novel,0,yes
11,3,11,p,1.4583764579983836,1,112,17,1,Learned,0,yes
11,3,12,q,1.7539917920003063,2,91,134,0,Novel,0,yes
11,3,13,p,1.320002000000386,2,30,44,1,Learned,0,yes
11,3,14,p,1.9318190000012692,1,44,9,1,Learned,0,yes
11,3,15,q,0.9634393749984156,3,140,123,1,Learned,1,yes
11,3,16,p,1.585811459000979,1,143,60,0,Novel,1,yes
11,3,17,q,1.3426911249989644,1,82,7,0,Novel,0,yes
11,3,18,p,1.6695574580007817,3,144,53,1,Learned,0,yes
11,3,19,q,0.6556612919994222,1,111,144,1,Learned,1,yes
11,3,20,q,1.3188972499992817,2,74,50,0,Novel,0,yes
11,3,21,p,0.9950280000011844,2,147,27,0,Novel,1,yes
11,3,22,p,0.8114360830004443,2,146,140,0,Novel,1,yes
11,3,23,q,1.1702766669986886,3,83,64,1,Learned,1,yes
11,3,24,p,0.7540107909990184,1,139,12,0,Novel,1,yes
11,3,25,p,0.7618087079972611,2,76,136,0,Novel,1,yes
11,3,26,q,0.8714492079998308,1,97,30,0,Novel,0,yes
11,3,27,q,0.817474833002052,1,95,90,0,Novel,0,yes
11,3,28,q,1.0854868329988676,3,89,43,0,Novel,0,yes
11,3,29,q,0.712035125001421,1,77,61,1,Learned,1,yes
11,3,30,p,0.6787939589994494,3,145,83,0,Novel,1,yes
11,3,31,p,1.097793124998134,3,98,111,0,Novel,1,yes
11,3,32,p,0.6513547919967095,2,142,33,0,Novel,1,yes
11,3,33,q,0.5779721250000875,3,1,79,1,Learned,1,yes
11,3,34,q,0.731747958001506,2,64,1,1,Learned,1,yes
11,3,35,q,1.0779598750013974,2,27,113,1,Learned,1,yes
11,3,36,q,2.1248244580019673,2,60,112,1,Learned,1,yes
11,3,37,p,2.119580208000116,2,43,73,1,Learned,0,yes
11,3,38,p,0.9143115830011084,1,93,110,0,Novel,1,yes
11,3,39,q,0.6772334169982059,3,81,77,0,Novel,0,yes
11,3,40,p,1.2066610000001674,3,101,129,0,Novel,1,yes
11,3,41,p,1.65445045800152,2,94,17,0,Novel,1,yes
11,3,42,q,0.7292579999993904,3,50,134,1,Learned,1,yes
11,3,43,p,1.2221702500028186,3,61,44,1,Learned,0,yes
11,3,44,p,1.2058021250013553,2,33,9,1,Learned,0,yes
11,3,45,q,0.8923048749966256,1,129,123,1,Learned,1,yes
11,3,46,q,2.1098483329988085,3,80,60,0,Novel,0,yes
11,3,48,p,1.3981108749976556,1,141,53,0,Novel,1,yes
11,3,49,q,0.7178184999975201,1,9,144,1,Learned,1,yes
11,3,50,q,0.6511062080026022,2,79,50,1,Learned,1,yes
11,3,51,p,0.7540681250029593,1,73,27,1,Learned,0,yes
11,3,52,q,0.9708002079969448,2,75,140,0,Novel,0,yes
11,3,53,p,0.8381645840017882,1,123,64,1,Learned,0,yes
11,3,54,p,1.7265362920006735,1,84,12,0,Novel,1,yes
11,3,56,q,0.9281743330029713,2,17,30,1,Learned,1,yes
11,3,57,q,0.658607708002819,1,90,90,1,Learned,1,yes
11,3,59,q,1.0477360840013716,2,12,61,1,Learned,1,yes
11,3,60,q,0.8665928749978775,1,110,83,1,Learned,1,yes
12,1,2,q,1.911614207998355,2,151,151,1,Learned,1,yes
12,1,3,p,1.4029334580009163,3,13,129,0,Novel,1,yes
12,1,4,q,1.894268166000984,3,16,62,0,Novel,0,yes
12,1,5,p,0.8697877909999079,3,110,140,0,Novel,1,yes
12,1,6,p,1.0135767080009828,3,129,109,1,Learned,0,yes
12,1,7,q,1.6924157499997818,2,62,28,1,Learned,1,yes
12,1,8,q,1.4122492500009685,1,140,37,1,Learned,1,yes
12,1,9,p,1.716974000000846,2,113,22,0,Novel,1,yes
12,1,10,q,1.0336790420005857,3,109,83,1,Learned,1,yes
12,1,11,p,1.5635792499997478,1,33,119,0,Novel,1,yes
12,1,12,q,1.7817612920007375,3,28,106,1,Learned,1,yes
12,1,13,p,0.779111040999851,2,37,141,1,Learned,0,yes
12,1,14,p,1.09651975000088,2,105,75,0,Novel,1,yes
12,1,15,p,0.8007950840001286,2,22,131,1,Learned,0,yes
12,1,17,p,1.2817065839990391,2,17,90,0,Novel,1,yes
12,1,18,q,1.2750419999993028,1,119,27,1,Learned,1,yes
12,1,19,q,1.8061093340002117,3,106,39,1,Learned,1,yes
12,1,20,q,1.4962702920001902,3,115,14,0,Novel,0,yes
12,1,21,p,1.7733849579999514,3,141,23,1,Learned,0,yes
12,1,22,p,1.5177607919995353,3,104,98,0,Novel,1,yes
12,1,23,p,1.7371340839999905,2,75,123,1,Learned,0,yes
12,1,24,p,2.0134772090004844,1,131,89,1,Learned,0,yes
12,1,25,p,2.2406072079993464,1,10,87,1,Learned,0,yes
12,1,27,p,1.1734195419994649,3,114,94,0,Novel,1,yes
12,1,28,p,1.1855765410000458,3,27,134,1,Learned,0,yes
12,1,30,p,1.1129598329989676,2,4,43,0,Novel,1,yes
12,1,31,p,2.453835416999937,3,39,102,1,Learned,0,yes
12,1,32,p,1.007565916999738,2,14,151,1,Learned,0,yes
12,1,34,p,1.063960666000639,3,98,62,1,Learned,0,yes
12,1,37,p,1.5216571669989207,2,108,28,0,Novel,1,yes
12,1,38,q,2.496376334000161,2,87,37,1,Learned,1,yes
12,1,39,q,1.081124792000992,1,78,22,1,Learned,1,yes
12,1,40,p,1.117919999998776,2,32,83,0,Novel,1,yes
12,1,41,p,1.0932864169990353,3,20,119,0,Novel,1,yes
12,1,42,p,2.2258146660005877,2,94,106,1,Learned,0,yes
12,1,44,q,1.4611847920004948,1,2,75,1,Learned,1,yes
12,1,45,q,1.1041487919992503,1,107,131,0,Novel,0,yes
12,1,46,p,1.3881743339989043,2,12,10,0,Novel,1,yes
12,1,47,q,1.5870533750003233,2,25,90,0,Novel,0,yes
12,1,49,p,1.8303877500002272,2,43,39,1,Learned,0,yes
12,1,50,p,0.8510943340006634,1,18,14,0,Novel,1,yes
12,1,52,p,2.429590165998889,2,21,98,0,Novel,1,yes
12,1,53,p,0.8847966249995807,2,19,123,0,Novel,1,yes
12,1,54,p,2.0139741670009244,2,36,89,0,Novel,1,yes
12,1,55,p,0.9197395840001265,3,112,87,0,Novel,1,yes
12,1,57,p,1.5430878339993797,2,1,94,0,Novel,1,yes
12,1,58,p,1.3656293750009354,2,9,134,0,Novel,1,yes
12,1,59,q,1.74053370799993,3,26,2,0,Novel,0,yes
12,1,60,p,1.3201429999990069,3,11,43,0,Novel,1,yes
12,2,1,p,1.6960161669994704,2,116,102,0,Novel,1,yes
12,2,2,q,1.9629110839996429,2,23,151,1,Learned,1,yes
12,2,5,q,2.323025499999858,2,61,140,0,Novel,0,yes
12,2,6,q,1.6985953749972396,2,78,109,1,Learned,1,yes
12,2,7,p,0.8176078750002489,3,126,28,0,Novel,1,yes
12,2,8,p,1.423048208002001,2,42,37,0,Novel,1,yes
12,2,9,q,1.7823523330007447,3,94,22,1,Learned,1,yes
12,2,10,p,1.7001856250026322,2,128,83,0,Novel,1,yes
12,2,11,p,1.3539082079987566,1,59,119,0,Novel,1,yes
12,2,12,p,1.1217215830001803,2,68,106,0,Novel,1,yes
12,2,13,p,0.9504754160006996,1,134,141,1,Learned,0,yes
12,2,14,p,0.866305208997801,3,151,75,1,Learned,0,yes
12,2,15,p,1.118109540999285,1,89,131,1,Learned,0,yes
12,2,16,q,1.966012916996988,2,2,10,1,Learned,1,yes
12,2,17,p,1.3109514169991598,1,62,90,1,Learned,0,yes
12,2,18,q,1.415058083999611,1,141,27,1,Learned,1,yes
12,2,19,p,1.0812402910014498,1,41,39,0,Novel,1,yes
12,2,20,p,1.3180091670001275,2,57,14,0,Novel,1,yes
12,2,21,p,1.0180523340022771,3,140,23,1,Learned,0,yes
12,2,22,p,1.0704275000025518,3,87,98,1,Learned,0,yes
12,2,23,p,1.441433167001378,1,39,123,1,Learned,0,yes
12,2,27,p,0.8173144170032174,3,124,94,0,Novel,1,yes
12,2,28,p,1.2301793749975332,2,106,134,1,Learned,0,yes
12,2,29,p,1.500560124997719,1,98,2,1,Learned,0,yes
12,2,30,p,1.0253990829987742,2,122,43,0,Novel,1,yes
12,2,31,p,2.27735416699943,2,27,102,1,Learned,0,yes
12,2,33,p,1.0294578329994692,1,14,129,1,Learned,0,yes
12,2,34,p,1.8159292499985895,3,66,62,0,Novel,1,yes
12,2,35,p,2.3928710839973064,1,28,140,1,Learned,0,yes
12,2,36,p,0.7867159169982187,3,131,109,1,Learned,0,yes
12,2,37,p,0.9604691249987808,2,45,28,0,Novel,1,yes
12,2,38,q,1.250956791001954,1,120,37,0,Novel,0,yes
12,2,39,p,0.9030741670030692,3,102,22,1,Learned,0,yes
12,2,40,p,1.713321792001807,3,37,83,1,Learned,0,yes
12,2,41,p,0.792221542000334,1,49,119,0,Novel,1,yes
12,2,42,p,0.9195084580023832,1,109,106,1,Learned,0,yes
12,2,43,p,1.074740041000041,3,119,141,1,Learned,0,yes
12,2,44,p,1.0470515830020304,1,130,75,0,Novel,1,yes
12,2,45,p,1.517576750000444,1,90,131,1,Learned,0,yes
12,2,46,p,0.7542012500016426,1,125,10,0,Novel,1,yes
12,2,47,p,0.9277474170012284,3,53,90,0,Novel,1,yes
12,2,49,p,1.085657166997407,2,118,39,0,Novel,1,yes
12,2,50,p,2.1007346660007897,1,52,14,0,Novel,1,yes
12,2,51,p,0.9887614580002264,3,22,23,1,Learned,0,yes
12,2,52,p,1.6414495419994637,3,50,98,0,Novel,1,yes
12,2,53,p,1.0150917079990904,1,47,123,0,Novel,1,yes
12,2,54,p,1.123852000000625,2,129,89,1,Learned,0,yes
12,2,55,p,1.6617912500005332,3,38,87,0,Novel,1,yes
12,2,56,p,1.5910465000015392,2,67,78,0,Novel,1,yes
12,2,57,p,1.986862999998266,1,64,94,0,Novel,1,yes
12,2,60,p,1.8707334999999148,3,44,43,0,Novel,1,yes
12,3,1,p,0.9531876670007478,2,123,102,1,Learned,0,yes
12,3,2,p,1.120790457996918,1,92,151,0,Novel,1,yes
12,3,3,p,1.4841571659999315,1,93,129,0,Novel,1,yes
12,3,4,p,1.0372954159975052,2,39,62,1,Learned,0,yes
12,3,5,p,1.655942083998525,1,106,140,1,Learned,0,yes
12,3,6,q,1.8842177499973332,2,98,109,1,Learned,1,yes
12,3,8,q,1.3652428749992396,3,2,37,1,Learned,1,yes
12,3,10,q,1.1527594170001976,1,151,83,1,Learned,1,yes
12,3,11,p,1.497761457998422,1,74,119,0,Novel,1,yes
12,3,12,p,1.013928834003309,3,134,106,1,Learned,0,yes
12,3,13,p,1.0176563750028436,3,84,141,0,Novel,1,yes
12,3,14,p,1.9298855409979296,1,27,75,1,Learned,0,yes
12,3,15,p,1.1266444160028186,2,139,131,0,Novel,1,yes
12,3,16,p,1.9367695000000824,2,102,10,1,Learned,0,yes
12,3,18,p,0.7367534170007275,2,88,27,0,Novel,1,yes
12,3,19,p,1.0449416249975911,3,14,39,1,Learned,0,yes
12,3,20,p,2.1384566249980708,1,91,14,0,Novel,1,yes
12,3,22,p,1.3779621659996335,3,97,98,0,Novel,1,yes
12,3,23,p,1.0982473750009376,3,43,123,1,Learned,0,yes
12,3,24,q,1.936617291001312,3,75,89,1,Learned,1,yes
12,3,25,p,1.377871624998079,2,144,87,0,Novel,1,yes
12,3,26,p,1.5649015420021897,1,22,78,1,Learned,0,yes
12,3,28,p,1.3566074590016797,2,131,134,1,Learned,0,yes
12,3,30,p,1.2406282910014852,2,73,43,0,Novel,1,yes
12,3,31,p,1.7138453329971526,3,135,102,0,Novel,1,yes
12,3,32,q,1.6107371250000142,1,37,151,1,Learned,1,yes
12,3,34,q,1.376491749997513,2,28,62,1,Learned,1,yes
12,3,35,p,2.1828652920012246,2,109,140,1,Learned,0,yes
12,3,36,q,1.3189241250001942,3,62,109,1,Learned,1,yes
12,3,37,p,1.969247916997119,1,70,28,0,Novel,1,yes
12,3,38,p,2.1722698330013372,1,87,37,1,Learned,0,yes
12,3,40,q,2.0015524169975834,1,94,83,1,Learned,1,yes
12,3,41,p,1.7275180830001773,3,82,119,0,Novel,1,yes
12,3,42,p,1.0873235830003978,2,140,106,1,Learned,0,yes
12,3,43,p,1.3908755410011509,2,138,141,0,Novel,1,yes
12,3,47,q,1.4391399170017394,2,83,90,1,Learned,1,yes
12,3,48,p,2.1220777919988905,2,146,27,0,Novel,1,yes
12,3,49,q,1.2887145419990702,2,69,39,0,Novel,0,yes
12,3,50,p,0.9034592499992868,3,76,14,0,Novel,1,yes
12,3,51,p,0.8996847920025175,3,136,23,0,Novel,1,yes
12,3,52,p,1.2726829160019406,3,145,98,0,Novel,1,yes
12,3,53,p,1.0579744589995244,1,79,123,0,Novel,1,yes
12,3,54,p,2.0319663749978645,3,100,89,0,Novel,1,yes
12,3,55,p,1.7325509160000363,1,143,87,0,Novel,1,yes
12,3,56,p,2.2084470839981805,1,95,78,0,Novel,1,yes
13,1,1,q,0.5364237500016316,1,68,68,1,Learned,1,yes
13,1,2,p,0.8423335000006773,2,11,141,0,Novel,1,yes
13,1,3,q,0.576802958999906,1,141,23,1,Learned,1,yes
13,1,4,p,0.5675029579997499,1,33,139,0,Novel,1,yes
13,1,5,q,0.5822430420012097,1,23,115,1,Learned,1,yes
13,1,6,q,0.4873097920008149,2,139,126,1,Learned,1,yes
13,1,7,p,0.5648525409997092,2,1,78,0,Novel,1,yes
13,1,8,q,0.6566695000001346,3,107,25,0,Novel,0,yes
13,1,9,q,0.730851000000257,3,13,10,0,Novel,0,yes
13,1,10,p,0.6079713749986695,3,20,18,0,Novel,1,yes
13,1,11,p,0.844675708000068,2,21,52,0,Novel,1,yes
13,1,12,q,0.6387207920015499,1,115,62,1,Learned,1,yes
13,1,13,p,0.8786430410000321,2,2,73,0,Novel,1,yes
13,1,14,q,0.7604677090002951,1,32,19,0,Novel,0,yes
13,1,15,q,0.7029799169995385,3,126,97,1,Learned,1,yes
13,1,16,q,0.6943649999993795,2,78,95,1,Learned,1,yes
13,1,17,p,0.6252087499997288,2,22,30,0,Novel,1,yes
13,1,18,p,0.71504166700106,1,27,114,0,Novel,1,yes
13,1,19,p,0.7136895830008143,2,113,64,0,Novel,1,yes
13,1,20,q,0.6897696249998262,1,25,143,1,Learned,1,yes
13,1,21,q,0.8094784580007399,2,108,43,0,Novel,0,yes
13,1,22,q,0.8810921250005777,1,10,130,1,Learned,1,yes
13,1,23,q,0.7369382079996285,1,18,57,1,Learned,1,yes
13,1,24,p,0.6378580420005164,3,14,153,0,Novel,1,yes
13,1,25,q,0.6255287080002745,2,52,51,1,Learned,1,yes
13,1,26,p,0.8238886660001299,3,111,94,0,Novel,1,yes
13,1,27,p,0.7023265839998203,3,7,29,0,Novel,1,yes
13,1,28,q,0.7788562089990592,3,17,4,0,Novel,0,yes
13,1,29,q,0.7193508750006004,2,62,116,1,Learned,1,yes
13,1,30,p,0.7373035000000527,3,28,106,0,Novel,1,yes
13,1,31,q,0.8179585830002907,3,73,68,1,Learned,1,yes
13,1,32,p,0.8286578329989425,2,109,141,0,Novel,1,yes
13,1,33,q,0.7632034170001134,3,19,23,1,Learned,1,yes
13,1,34,p,0.793608582998786,2,12,139,0,Novel,1,yes
13,1,35,p,0.7860887500009994,3,26,115,0,Novel,1,yes
13,1,36,q,0.7684375410008215,1,97,126,1,Learned,1,yes
13,1,37,p,0.6989939999984927,1,105,78,0,Novel,1,yes
13,1,38,p,0.879245041998729,2,117,25,0,Novel,1,yes
13,1,39,q,0.5683146669998678,2,95,10,1,Learned,1,yes
13,1,40,q,0.5958339580010943,3,30,18,1,Learned,1,yes
13,1,41,p,0.7005929160004598,2,104,52,0,Novel,1,yes
13,1,42,q,0.6369405410005129,1,114,62,1,Learned,1,yes
13,1,43,q,0.6325792499992531,3,64,73,1,Learned,1,yes
13,1,44,p,0.7622759169989877,2,36,19,0,Novel,1,yes
13,1,45,p,0.7899684160001925,3,37,97,0,Novel,1,yes
13,1,46,q,1.095700834001036,2,143,95,1,Learned,1,yes
13,1,47,q,0.7219254169995111,1,43,30,1,Learned,1,yes
13,1,48,p,0.7938413329993637,3,110,114,0,Novel,1,yes
13,1,49,q,0.562171749999834,1,9,64,0,Novel,0,yes
13,1,50,p,0.7856604590015195,3,112,143,0,Novel,1,yes
13,1,51,q,0.7452143749997049,2,130,43,1,Learned,1,yes
13,1,52,p,0.7681947090004542,3,16,130,0,Novel,1,yes
13,1,53,q,0.6092901250012801,1,57,57,1,Learned,1,yes
13,1,54,q,0.6742205419996026,2,153,153,1,Learned,1,yes
13,1,55,q,0.5416170409989718,3,51,51,1,Learned,1,yes
13,1,56,q,0.6338745829998516,1,94,94,1,Learned,1,yes
13,1,57,q,0.5861793340009172,1,29,29,1,Learned,1,yes
13,1,58,q,0.5868737079999846,3,4,4,1,Learned,1,yes
13,1,59,q,0.5624735410001449,2,116,116,1,Learned,1,yes
13,1,60,q,0.5481887919995643,1,106,106,1,Learned,1,yes
13,2,1,q,0.6626302919994487,2,23,68,1,Learned,1,yes
13,2,2,q,0.6141778749988589,1,19,141,1,Learned,1,yes
13,2,3,q,0.6336392920002254,3,123,23,0,Novel,0,yes
13,2,4,q,0.6179433750003227,2,41,139,0,Novel,0,yes
13,2,5,q,0.6845096659999399,1,126,115,1,Learned,1,yes
13,2,6,q,0.5567450830003509,3,56,126,0,Novel,0,yes
13,2,7,p,0.6569009169998026,3,130,78,1,Learned,0,yes
13,2,8,q,0.6512425000000803,2,66,25,0,Novel,0,yes
13,2,9,p,0.60818454100081,2,44,10,0,Novel,1,yes
13,2,10,p,0.7900609169992094,3,124,18,0,Novel,1,yes
13,2,11,q,0.6638511250002921,1,69,52,0,Novel,0,yes
13,2,12,q,0.6270511250004347,3,25,62,1,Learned,1,yes
13,2,13,q,0.5434504590011784,1,62,73,1,Learned,1,yes
13,2,14,q,0.5654167079992476,3,18,19,1,Learned,1,yes
13,2,15,q,0.5801917919998232,1,30,97,1,Learned,1,yes
13,2,16,p,0.7058401670001331,1,61,95,0,Novel,1,yes
13,2,17,p,0.5975270420003653,1,59,30,0,Novel,1,yes
13,2,18,p,0.8036100830013311,2,128,114,0,Novel,1,yes
13,2,19,q,0.5351453330004006,3,68,64,1,Learned,1,yes
13,2,20,q,0.586904499999946,3,94,143,1,Learned,1,yes
13,2,21,q,0.6947877090005932,3,78,43,1,Learned,1,yes
13,2,22,p,0.8138941249999334,3,118,130,0,Novel,1,yes
13,2,23,q,0.602556416999505,1,52,57,1,Learned,1,yes
13,2,24,p,0.6310630000007222,1,72,153,0,Novel,1,yes
13,2,25,p,0.5736607910002931,3,122,51,0,Novel,1,yes
13,2,26,p,0.6281352919995697,2,39,94,0,Novel,1,yes
13,2,27,p,0.6881517080000776,1,70,29,0,Novel,1,yes
13,2,28,p,0.5487956670003769,2,71,4,0,Novel,1,yes
13,2,29,q,0.6107404160011356,2,10,116,1,Learned,1,yes
13,2,30,p,0.6822599999995873,1,51,106,1,Learned,0,yes
13,2,31,q,0.7246641250003449,2,115,68,1,Learned,1,yes
13,2,32,q,0.5876920419996168,3,114,141,1,Learned,1,yes
13,2,33,p,0.5625736250003683,1,50,23,0,Novel,1,yes
13,2,34,q,0.877944292000393,1,153,139,1,Learned,1,yes
13,2,35,p,0.5717983750000712,2,45,115,0,Novel,1,yes
13,2,36,q,0.4997576249988924,3,29,126,1,Learned,1,yes
13,2,37,p,0.4763066249997792,2,119,78,0,Novel,1,yes
13,2,38,p,0.5737287499996455,2,97,25,1,Learned,0,yes
13,2,39,p,0.7108843749992957,2,129,10,0,Novel,1,yes
13,2,40,q,0.6522692500002449,3,120,18,0,Novel,0,yes
13,2,41,p,0.6166965829997935,3,38,52,0,Novel,1,yes
13,2,42,p,0.5654475419996743,1,49,62,0,Novel,1,yes
13,2,43,p,0.6816921249992447,3,60,73,0,Novel,1,yes
13,2,44,q,0.5530285419990832,1,4,19,1,Learned,1,yes
13,2,45,p,0.6773018329986371,1,47,97,0,Novel,1,yes
13,2,46,p,0.5591107920008653,1,42,95,0,Novel,1,yes
13,2,47,q,0.4965054999993299,1,95,30,1,Learned,1,yes
13,2,48,p,0.5483667500011506,2,131,114,0,Novel,1,yes
13,2,49,q,0.5258863330000167,1,64,64,1,Learned,1,yes
13,2,50,p,0.46662100000139617,2,67,143,0,Novel,1,yes
13,2,51,p,0.6561246250003023,3,53,43,0,Novel,1,yes
13,2,52,p,0.6185946669993427,1,125,130,0,Novel,1,yes
13,2,53,p,0.4967565420010942,3,116,57,1,Learned,0,yes
13,2,54,q,0.6001362499991956,3,143,153,1,Learned,1,yes
13,2,55,p,0.5682125000002998,2,73,51,1,Learned,0,yes
13,2,56,q,0.8151239159997203,3,106,94,1,Learned,1,yes
13,2,57,p,0.5545455829997081,2,43,29,1,Learned,0,yes
13,2,58,q,0.8650111659990216,1,139,4,1,Learned,1,yes
13,2,59,q,0.612709792001624,3,141,116,1,Learned,1,yes
13,2,60,q,0.5469949590005854,3,57,106,1,Learned,1,yes
13,3,1,q,0.613568208000288,2,64,68,1,Learned,1,yes
13,3,2,q,0.49272004200065567,3,88,141,0,Novel,0,yes
13,3,3,q,0.5043077089994767,2,30,23,1,Learned,1,yes
13,3,4,q,0.5893979160009621,1,90,139,0,Novel,0,yes
13,3,5,p,0.7324302500001068,3,79,115,0,Novel,1,yes
13,3,6,p,0.7488788340015162,2,51,126,1,Learned,0,yes
13,3,7,q,1.0337847920000058,3,144,78,0,Novel,0,yes
13,3,8,q,0.5365372920005029,3,139,25,1,Learned,1,yes
