pid,block,trial,keypress,rt,ori,stim
1,1,1,q,3.3106764999999996,3,105
1,1,2,q,1.1996954159999405,3,9
1,1,3,q,1.2348165419998622,3,19
1,1,4,p,2.7853454159999274,3,113
1,1,5,q,1.5228758329999437,2,47
1,1,6,q,1.022793374999992,1,27
1,1,7,p,3.4563937079999505,3,112
1,1,8,q,1.1464144589999703,3,11
1,1,9,q,0.8669940830000087,3,71
1,1,10,p,3.685006333000046,1,14
1,1,11,q,0.8362628750001022,3,2
1,1,12,p,4.600469833000034,3,124
1,1,13,p,4.6205202920000374,3,16
1,1,14,q,5.192163791999974,3,29
1,1,15,p,1.4657933749999756,3,104
1,1,16,p,1.5647147910001422,3,17
1,1,17,p,7.982841207999854,2,144
1,1,18,q,1.154299250000122,2,41
1,1,19,q,5.473984833000031,1,67
1,1,20,q,2.029944207999961,1,82
1,1,21,q,1.0580527090000942,1,39
1,1,22,p,6.18162370899995,2,18
1,1,23,p,4.331021499999906,1,151
1,1,24,q,1.0539914999999382,2,81
1,1,25,q,3.7812725000001137,1,7
1,1,26,q,1.6159175420000338,3,125
1,1,27,p,2.9892901249997976,2,108
1,1,28,q,1.4396845829999163,2,25
1,1,29,p,5.210253708999971,2,117
1,1,30,q,0.9717683749997832,1,146
1,1,31,p,4.025951708999855,2,73
1,1,32,q,4.105748292000044,2,97
1,1,33,q,7.066803290999815,3,26
1,1,34,p,1.5832121250000455,3,23
1,1,35,q,1.709671208999907,3,77
1,1,36,q,3.446488416999955,3,10
1,1,37,q,1.3254002500000297,3,95
1,1,38,p,4.523881249999931,3,30
1,1,39,q,4.133117749999883,2,107
1,1,40,p,1.705774166000083,3,110
1,1,41,p,6.419176582999853,2,12
1,1,42,p,1.1316603330001271,2,21
1,1,43,p,4.854147624999996,2,22
1,1,44,q,4.36185020899984,3,87
1,1,45,p,5.239031833000126,1,20
1,1,46,p,1.5111770000000888,3,126
1,1,47,q,4.022430459000134,3,136
1,1,48,p,6.13994833300012,2,4
1,1,49,q,6.887082792000001,1,111
1,1,50,p,5.1454042080004,1,78
1,1,51,p,6.4693174590001945,1,28
1,1,52,q,1.042677249999997,3,50
1,1,53,p,4.441406708000159,1,131
1,1,54,p,3.3098167920002197,3,114
1,1,55,p,3.241980166999838,2,32
1,1,56,q,1.1169052919999558,3,68
1,1,57,q,1.0057376660001864,1,1
1,1,58,q,4.401983458000359,2,13
1,1,59,p,6.9021103749996655,1,106
1,1,60,p,1.3955837090002206,1,109
1,2,1,p,8.004509708000114,3,119
1,2,2,p,3.3800180409998575,2,116
1,2,3,q,4.21752937500014,2,66
1,2,4,p,1.4036208749998875,2,57
1,2,5,q,5.717984416000036,2,123
1,2,6,q,2.0394072090002737,2,87
1,2,7,q,1.2497139580000294,1,47
1,2,8,q,9.200302457999896,3,67
1,2,9,p,6.259041249999882,3,53
1,2,10,q,2.5155630419999397,2,50
1,2,11,p,4.816341000000193,2,118
1,2,12,p,2.0017487909999545,3,129
1,2,13,q,1.4314666669997678,1,26
1,2,14,q,6.067340457999762,3,151
1,2,15,p,1.7104550829999423,1,128
1,2,16,q,1.423690458999772,2,19
1,2,17,q,3.693517374999829,3,60
1,2,18,p,9.70513549999987,1,117
1,2,19,p,6.025186833000134,1,36
1,2,20,q,2.674894249999852,1,51
1,2,21,q,5.135081625000112,1,56
1,2,22,q,2.591541791000054,2,39
1,2,23,q,1.4772680830001264,1,107
1,2,24,p,2.6472026249998635,1,42
1,2,25,q,2.517737749999924,1,52
1,2,26,q,3.2429050000000643,1,81
1,2,27,q,4.012617957999737,2,124
1,2,28,p,1.8521007090002968,1,49
1,2,29,p,4.854464042000018,3,38
1,2,30,p,3.072005916999842,3,45
1,2,31,p,10.58080479199998,3,27
1,2,32,q,2.8560541659999217,1,126
1,2,33,p,3.4424889580000126,1,59
1,2,34,q,2.8739968329996373,3,131
1,2,35,q,6.307849875000102,3,43
1,2,36,p,9.132014290999903,2,44
1,2,37,p,3.553906042000108,3,33
1,2,38,p,9.573004332999972,1,64
1,2,39,p,1.3205292499997086,1,130
1,2,40,q,1.4506662919998234,1,41
1,2,41,q,7.934947999999622,3,122
1,2,42,q,1.0986386250001487,1,77
1,2,43,p,5.264758875000098,2,62
1,2,44,q,1.414553375000196,2,82
1,2,45,p,4.519736291999834,1,61
1,2,46,q,1.688493833999928,1,11
1,2,47,p,3.4711873330002163,3,115
1,2,48,q,2.89723770899991,1,144
1,2,49,q,3.068903333000435,1,97
1,2,50,p,4.3419931250000445,2,37
1,2,51,q,1.467307541000082,2,136
1,2,52,q,10.474622167000234,1,120
1,2,53,p,4.733945417000086,2,78
1,2,54,p,10.42376483399994,2,125
1,2,55,q,1.5402752089999012,2,146
1,2,56,q,2.1398377499999697,2,2
1,2,57,q,2.286599667000246,2,68
1,2,58,p,4.945427375000236,1,73
1,2,59,q,2.722123458000169,1,95
1,2,60,q,2.002274334000049,2,71
1,3,1,p,11.446539459000178,2,141
1,3,2,q,1.6735441249998075,2,11
1,3,3,q,1.292929834000006,1,124
1,3,4,q,1.706982374999825,2,151
1,3,5,p,4.245118165999884,2,94
1,3,6,q,5.974705249999715,2,131
1,3,7,q,1.4390311249999286,3,39
1,3,8,p,2.4517972080002437,1,132
1,3,9,q,2.4276119999999537,2,77
1,3,10,p,2.460109957999975,2,143
1,3,11,p,1.9180985839998357,3,134
1,3,12,q,7.468076375000237,3,70
1,3,13,p,2.4097176659997785,1,83
1,3,14,p,11.762155750000147,1,135
1,3,15,p,2.751735832999657,1,101
1,3,16,p,8.67232712499981,1,140
1,3,17,q,1.4031520839998848,1,87
1,3,18,q,3.98161354199965,3,144
1,3,19,p,1.6914309999997386,1,72
1,3,20,q,8.914378709000175,2,27
1,3,21,q,1.960972041000332,1,71
1,3,22,p,2.551965250000194,2,92
1,3,23,p,9.66697779099968,3,89
1,3,24,q,13.14416329100004,2,79
1,3,25,q,2.3051687079996555,3,47
1,3,26,q,1.7568310000001477,3,82
1,3,27,q,0.8991518749999159,1,19
1,3,28,q,8.615167416000077,1,50
1,3,29,p,5.3607642080000915,1,100
1,3,30,p,4.9092761250003605,2,98
1,3,31,p,1.919390375000148,1,84
1,3,32,p,9.745340458999635,3,69
1,3,33,p,1.5188336670003082,3,142
1,3,34,p,6.9731865409999045,3,145
1,3,35,q,2.1874264590001076,3,41
1,3,36,q,1.3631985000001805,1,125
1,3,37,q,1.1312899590002417,3,75
1,3,38,p,1.5751443330000257,1,74
1,3,39,p,2.292842040999858,3,139
1,3,40,q,7.811747792000006,2,90
1,3,41,p,3.929565166999964,2,80
1,3,42,q,2.217204875000334,1,136
1,3,43,q,2.6061289999997825,3,97
1,3,44,q,2.5507600420000927,3,117
1,3,45,p,1.416806749999978,1,76
1,3,46,q,2.7185305420002805,1,68
1,3,47,p,5.712346458999946,2,91
1,3,48,p,3.4547738749997734,3,88
1,3,49,p,5.024589500000275,3,73
1,3,50,p,11.138924124999903,3,138
1,3,51,p,6.832972457999858,1,93
1,3,52,q,1.9082647090003777,2,26
1,3,53,q,1.6165654590004124,2,95
1,3,54,p,4.520448792000025,2,126
1,3,55,q,1.617246833000081,3,107
1,3,56,q,0.8959374170003684,1,2
1,3,57,q,3.0877347089999603,3,78
1,3,58,p,7.689728374999959,3,146
1,3,59,p,9.53996291600015,2,67
1,3,60,p,8.86601708299986,3,81
2,1,1,q,0.6973037499992643,3,7
2,1,2,p,1.4152120420003484,1,112
2,1,3,p,1.0912334999993618,3,37
2,1,4,q,0.8524319579992152,3,49
2,1,5,p,1.2431340420007473,3,108
2,1,6,q,1.0019867500013788,1,116
2,1,7,p,1.1902042500005336,1,14
2,1,8,q,1.062363707998884,3,22
2,1,9,q,0.8615197920007631,3,153
2,1,10,p,1.7152999999998428,3,1
2,1,11,p,1.2287115000035556,2,16
2,1,12,q,0.77694849999898,1,79
2,1,13,p,0.8438175000010233,3,17
2,1,14,p,0.8892485420001321,1,29
2,1,15,p,0.8998147919992334,2,4
2,1,16,p,1.0979628749992116,1,39
2,1,17,p,1.038757041998906,1,139
2,1,18,p,1.780904457998986,1,113
2,1,19,q,0.8110492920022807,3,68
2,1,20,q,3.863956582998071,3,122
2,1,21,q,0.8324975830000767,1,72
2,1,22,p,2.8946729580020474,1,105
2,1,23,q,2.7494430000006105,2,100
2,1,24,p,0.929856207996636,2,19
2,1,25,p,1.1030049580003831,2,11
2,1,26,q,0.7351983330008807,1,93
2,1,27,p,1.2882437500011292,2,109
2,1,28,p,0.9451288330019452,1,36
2,1,29,p,0.8360522500006482,2,32
2,1,30,q,0.8538640829974611,1,9
2,1,31,p,0.984659041001578,3,20
2,1,32,p,0.98353170900009,1,104
2,1,33,p,0.7477670410007704,3,23
2,1,34,p,0.9453067079994072,2,107
2,1,35,p,2.077381916999002,1,12
2,1,36,p,1.6087557079990802,3,111
2,1,37,p,0.995993291002378,2,115
2,1,38,p,1.4749162920015806,2,45
2,1,39,q,1.5413036669997382,1,33
2,1,40,p,1.5285830829998304,3,76
2,1,41,p,1.0898942920030097,3,38
2,1,42,q,1.1711878330024774,1,120
2,1,43,p,3.3838267089995497,1,141
2,1,44,p,1.169413457999326,2,117
2,1,45,p,1.3341901250023511,1,43
2,1,46,p,0.8873400000011316,1,30
2,1,47,p,1.819654291997722,1,13
2,1,48,p,1.2532291669995177,1,106
2,1,49,q,2.72787904100187,1,26
2,1,50,q,2.3548056250001537,3,28
2,1,51,p,0.9990581249985552,3,21
2,1,52,q,1.048962874996505,3,25
2,1,53,p,1.781152249997831,3,2
2,1,54,p,1.978389625001,1,132
2,1,55,q,2.3167284590017516,1,27
2,1,56,q,1.1282401669996034,1,110
2,1,57,p,1.5481807090000077,2,10
2,1,58,q,1.2214742919968558,3,62
2,1,59,p,1.1741520420000595,3,114
2,1,60,p,2.52366691700081,2,18
2,2,1,q,0.8024001250014408,3,27
2,2,2,p,1.7575128329990548,1,7
2,2,3,q,2.6598694999993313,1,11
2,2,4,p,0.8371604589992785,3,129
2,2,5,p,0.9695380419980212,1,50
2,2,6,p,1.2153333330024907,3,71
2,2,7,p,0.9218608340015636,1,128
2,2,8,q,1.183667291999882,3,79
2,2,9,p,0.981732624997676,3,52
2,2,10,q,1.409959999997227,3,139
2,2,11,q,1.2097942079999484,2,28
2,2,12,p,2.6407833750017744,1,124
2,2,13,p,1.7411734589986736,1,100
2,2,14,q,0.83598287499989965,1,25
2,2,15,p,1.0144151669992425,2,59
2,2,16,p,1.7908337080007186,3,120
2,2,17,p,0.8474823750002543,3,73
2,2,18,p,1.269218584002374,1,41
2,2,19,p,1.3746940409982926,3,51
2,2,20,q,0.8711263339973812,2,141
2,2,21,p,1.2690456660020573,2,47
2,2,22,p,1.6332939589992748,2,76
2,2,23,p,2.6640610419999575,1,49
2,2,24,p,1.4744333750022631,2,22
2,2,25,p,2.0841274590020475,1,70
2,2,26,p,2.3912174590004724,2,56
2,2,27,p,0.8577052910004568,2,130
2,2,28,p,0.7243812500018976,1,42
2,2,29,p,3.2622182079976483,2,93
2,2,30,p,0.964557084000262,1,117
2,2,31,q,1.475471917001414,1,122
2,2,32,q,0.8026927920000162,1,62
2,2,33,p,2.80731120800192,3,18
2,2,34,q,0.9739614999998594,3,132
2,2,35,p,2.229974541998672,3,118
2,2,36,p,0.9511195840022992,1,131
2,2,37,p,1.6508512499967765,1,64
2,2,38,p,0.9944808330001252,2,69
2,2,39,p,1.2392201670008944,1,57
2,2,40,p,0.7887531670021417,2,67
2,2,41,q,2.519116959003441,2,9
2,2,42,q,1.458264249999047,3,45
2,2,43,p,1.2078846249969502,3,43
2,2,44,p,3.0230666669995117,3,110
2,2,45,p,1.933487292000791,3,61
2,2,46,q,2.963518083000963,1,153
2,2,47,p,0.8332088749994,1,119
2,2,48,q,2.2265214580002066,2,68
2,2,49,p,1.1377443750025122,1,125
2,2,50,p,1.067309166999621,1,44
2,2,51,p,0.9792471250002563,1,53
2,2,52,p,1.181186625002738,2,66
2,2,53,p,0.7480734160017164,2,114
2,2,54,p,1.9858369169996877,2,60
2,2,55,p,0.8088309170016146,2,126
2,2,56,p,2.1381219159993634,3,123
2,2,57,q,1.0286752089996298,3,26
2,2,58,q,1.269905707998987,2,33
2,2,59,q,1.8137771250003425,3,72
2,2,60,q,2.8894504590025463,2,116
2,3,1,p,1.5283167499983392,3,134
2,3,2,q,0.8536372499984282,3,9
2,3,3,q,1.0211483340026462,1,28
2,3,4,q,1.1799739580019375,2,26
2,3,5,q,2.236260999998194,2,25
2,3,6,p,1.93808891700246,3,77
2,3,7,p,0.9415130839988706,3,143
2,3,8,p,1.2153499169980932,2,79
2,3,9,p,1.135712125000282,1,45
2,3,10,p,0.8288152909990458,2,88
2,3,11,p,1.385657375001756,2,27
2,3,12,p,0.8963595830027771,2,82
2,3,13,p,1.1264041249996808,1,84
2,3,14,p,0.7613151669975196,2,92
2,3,15,p,1.0095425830004388,3,97
2,3,16,p,1.0108436659975268,3,144
2,3,17,p,0.757835749998776,3,75
2,3,18,p,0.8367242080021242,2,7
2,3,19,p,1.353677333001542,2,132
2,3,20,q,1.6844235829994432,2,43
2,3,21,p,0.9852666669976315,1,76
2,3,22,p,1.085509207998257,3,87
2,3,23,p,1.058622500000638,3,83
2,3,24,p,1.1366088750000929,3,89
2,3,25,p,1.2491797919974488,3,95
2,3,26,p,1.0682233750012529,2,139
2,3,27,p,0.83400624999922,1,74
2,3,28,p,0.9031093749981663,1,114
2,3,29,p,0.8420551669987617,2,49
2,3,30,p,2.4976654999991297,3,100
2,3,31,p,0.8546639580017654,1,138
2,3,32,q,1.3018264580023242,2,62
2,3,33,q,1.3344619999988936,2,153
2,3,34,q,3.2972267500008456,1,22
2,3,35,p,0.7732702909997897,3,142
2,3,36,q,1.0285436670019408,3,141
2,3,37,q,1.6953829579979356,2,110
2,3,38,p,0.7984160839987453,3,116
2,3,39,p,0.9475084580008116,3,91
2,3,40,p,0.8117427920005866,1,136
2,3,41,p,0.7482149169991317,2,101
2,3,42,p,1.3271382500024629,1,94
2,3,43,p,0.8206201249995502,1,145
2,3,44,p,1.174368082996807,2,122
2,3,45,p,2.1230411249998724,1,18
2,3,46,p,0.9160840830008964,3,135
2,3,47,p,1.1125577079983486,3,98
2,3,48,p,0.7771956249998766,3,140
2,3,49,p,1.8724018749999232,1,68
2,3,50,p,0.927001999996719,1,90
2,3,51,p,1.0646840419976795,2,81
2,3,52,p,0.7473781669978052,3,11
2,3,53,p,0.8032340410027246,3,78
2,3,54,p,1.4969517499994254,2,120
2,3,55,p,1.3052649160017609,3,117
2,3,56,p,1.1179898749978747,2,72
2,3,57,p,1.0821825419989182,3,146
2,3,58,q,2.6465644579984655,3,33
2,3,59,p,0.9797774170001504,3,93
2,3,60,p,0.8494217919978837,3,80
3,1,1,q,1.2260161669983063,3,95
3,1,2,p,3.256131792004453,3,108
3,1,3,p,1.003334166998684,1,104
3,1,4,p,1.4142072920003557,2,9
3,1,5,p,1.246869707996666,1,20
3,1,6,q,0.980086499999743,1,45
3,1,7,p,2.148307916999329,3,11
3,1,8,q,1.293746208997618,2,141
3,1,9,p,1.1279372079952736,1,4
3,1,10,p,1.8101702089988976,3,110
3,1,11,q,0.9589667500040376,2,118
3,1,12,q,1.3873119999989283,1,57
3,1,13,p,1.0907189160061534,3,33
3,1,14,p,1.3590142909961287,2,21
3,1,15,p,1.3053514160055784,2,128
3,1,16,q,1.5827592920031748,1,107
3,1,17,p,1.0030125830016914,2,17
3,1,18,p,3.6353688329982106,1,115
3,1,19,p,0.9728266670063022,1,112
3,1,20,p,1.909850167001423,2,14
3,1,21,p,4.491556500004663,3,2
3,1,22,p,0.914415540995833,2,109
3,1,23,q,0.9439398750037072,1,92
3,1,24,q,1.0457516250025949,3,16
3,1,25,p,2.068782750000537,1,111
3,1,26,p,3.834610417005024,2,44
3,1,27,p,0.9485392909991788,3,36
3,1,28,p,1.6769130829998176,2,94
3,1,29,q,0.7883415420001256,2,7
3,1,30,p,1.6157707079983084,1,30
3,1,31,q,1.8797838330065133,1,119
3,1,32,q,1.723436958003731,2,113
3,1,33,p,1.5013067079999018,3,18
3,1,34,q,1.841126416999032,3,29
3,1,35,q,0.9306912079991888,2,38
3,1,36,q,0.8597767089959234,3,143
3,1,37,q,0.929409750002378,3,22
3,1,38,q,0.7429775840064394,1,23
3,1,39,p,1.0843588749994524,2,28
3,1,40,p,1.9644686250030643,3,27
3,1,41,p,1.016910584003199,3,114
3,1,42,q,1.028146666998509,3,13
3,1,43,q,0.8619576249984675,3,52
3,1,44,p,1.1241212079985416,3,26
3,1,45,q,1.269556499995815,3,148
3,1,46,q,0.6896837500025867,3,25
3,1,47,q,1.197678167001868,1,123
3,1,48,q,0.6792793749991688,1,93
3,1,49,q,0.6699512919949484,1,83
3,1,50,q,0.664374083004077,1,77
3,1,51,p,1.1412055830005556,2,32
3,1,52,p,2.2830921670029056,2,106
3,1,53,q,1.228618084001937,2,124
3,1,54,p,2.167024834001495,3,37
3,1,55,p,1.197363625004073,2,1
3,1,56,q,1.1576254169995082,2,50
3,1,57,q,1.7499967090043356,1,10
3,1,58,p,1.6767303749948042,2,19
3,1,59,p,0.8566883340026834,1,12
3,1,60,p,1.1697905830005766,2,105
3,2,1,q,0.989617624996754,1,106
3,2,2,q,0.6964626670014695,3,93
3,2,3,q,0.8966792919964064,3,113
3,2,4,p,1.840478999998595,2,68
3,2,5,q,2.827702333997877,3,128
3,2,6,p,1.0125898330006748,1,71
3,2,7,q,1.1189532909993432,1,13
3,2,8,q,0.9191910000008648,2,23
3,2,9,p,1.2693335420044605,2,132
3,2,10,p,1.5856487499986542,3,66
3,2,11,p,1.196825415994681,3,67
3,2,12,p,0.8901400419999845,2,116
3,2,13,q,0.8668380409944803,3,57
3,2,14,q,0.5970844590046909,2,117
3,2,15,q,1.120694082994305,1,70
3,2,16,q,0.6264365419992828,1,51
3,2,17,p,1.4212603330015554,3,41
3,2,18,p,0.9907837499995368,2,120
3,2,19,p,1.2843230419966858,3,39
3,2,20,p,1.0960487080010353,2,53
3,2,21,q,1.0598071249987695,2,148
3,2,22,q,0.8206662919983501,1,141
3,2,23,q,1.6417280829991796,3,50
3,2,24,q,1.1613348750033765,2,22
3,2,25,q,1.1470894580052118,3,44
3,2,26,q,0.8984300410011201,2,83
3,2,27,q,0.6650063749984838,3,92
3,2,28,p,1.5835013750038345,1,56
3,2,29,q,0.851524875004543,3,45
3,2,30,p,1.0579182080036844,2,62
3,2,31,p,1.353540709002118,1,43
3,2,32,q,1.163056792000134,1,37
3,2,33,p,1.1080831669969484,3,69
3,2,34,q,0.7168200000014622,3,77
3,2,35,p,1.4903649589978158,3,20
3,2,36,q,0.6448496669981978,1,7
3,2,37,q,1.6862012920028064,1,52
3,2,38,p,1.0166435000064666,3,94
3,2,39,q,1.8527808750004624,2,143
3,2,40,q,1.165767667000182,1,118
3,2,41,p,0.9575246249951306,3,49
3,2,42,q,1.877943667001091,1,61
3,2,43,q,2.3100370000029216,2,123
3,2,44,p,1.1942513749963837,3,125
3,2,45,q,1.4532656669980497,2,16
3,2,46,p,1.0930153750014142,1,129
3,2,47,p,1.2119563330052188,3,28
3,2,48,q,1.1346845000007306,1,124
3,2,49,p,1.1586656250001397,1,59
3,2,50,p,0.8854957499934244,2,130
3,2,51,p,1.266571665997617,3,126
3,2,52,p,1.1416460410036962,2,47
3,2,53,p,0.8971462499976042,1,122
3,2,54,q,1.2208098329938366,3,60
3,2,55,p,1.0223342500030412,3,64
3,2,56,p,1.1294611249977606,3,42
3,2,57,q,1.6670894169947132,2,95
3,2,58,q,1.017031916999258,1,38
3,2,59,q,1.1594260830024723,3,119
3,2,60,p,0.8427822500016191,2,131
3,3,1,p,1.2061929580013384,3,91
3,3,2,p,0.7821460830018623,3,140
3,3,3,q,0.7484316249974654,1,113
3,3,4,p,0.8445662500016624,1,82
3,3,5,p,1.185222917003557,2,100
3,3,6,p,0.7106790839970927,3,145
3,3,7,q,1.0737167079932988,3,106
3,3,8,q,0.8207850830003736,3,83
3,3,9,q,1.6270989170006942,1,44
3,3,10,q,2.4939528339964454,2,135
3,3,11,p,1.6492143340001348,3,146
3,3,12,p,1.086684084002627,2,101
3,3,13,q,0.8826806670040241,1,148
3,3,14,q,0.8211169999995036,2,77
3,3,15,p,2.7498527499992633,1,136
3,3,16,q,0.991809082996042,1,16
3,3,17,q,0.9080483340003412,2,93
3,3,18,q,1.0544511249972857,2,119
3,3,19,q,0.7564236670004902,1,95
3,3,20,p,1.1863387909979792,3,74
3,3,21,p,1.3575245839965646,1,78
3,3,22,p,0.8101759170021978,1,28
3,3,23,q,1.627786290999211,2,57
3,3,24,q,1.3746118330018362,3,123
3,3,25,q,0.7542013749989565,2,13
3,3,26,q,0.7323055419983575,2,52
3,3,27,q,2.4365133330065873,3,38
3,3,28,q,0.8809860420005862,3,124
3,3,29,q,0.8814564589993097,3,141
3,3,30,p,0.8701266669959296,1,88
3,3,31,p,1.3289330420011538,1,98
3,3,32,p,1.6254131669993512,2,20
3,3,33,q,0.7733768329999293,1,143
3,3,34,q,0.7239492500011693,1,50
3,3,35,q,0.8533620000016526,3,23
3,3,36,p,0.9807482910036924,3,76
3,3,37,p,0.889717792000738,2,97
3,3,38,q,1.0719602909957755,3,7
3,3,39,q,1.1783511670000737,1,22
3,3,40,p,2.2840843750018394,3,75
3,3,41,p,0.7943747089957469,3,73
3,3,42,p,1.214672291993338,1,79
3,3,43,p,0.8816975000008824,1,90
3,3,44,q,0.781901292000839,2,45
3,3,45,p,1.0020009169966215,1,94
3,3,46,p,0.8003493330033962,1,142
3,3,47,q,1.6240762079978597,2,37
3,3,48,p,2.644216125001549,3,84
3,3,49,p,2.137816208000004,3,144
3,3,50,p,0.9598259159974988,1,134
3,3,51,q,1.1663739579962566,1,128
3,3,52,p,1.4101560420021997,1,72
3,3,53,p,0.8003758749982808,3,89
3,3,54,p,0.7018333340020035,2,87
3,3,55,q,2.277354750003724,3,118
3,3,56,p,0.6990603329977603,3,139
3,3,57,q,1.5853839170013089,2,92
3,3,58,p,2.2534855409976444,2,81
3,3,59,p,1.025740750003024,2,80
3,3,60,p,1.097538458998315,1,138
4,1,1,q,3.3562505839945516,1,29
4,1,2,q,1.1796295829990413,1,1
4,1,3,q,1.5516000829957193,2,7
4,1,4,q,1.7929922499897657,3,28
4,1,5,p,1.1536529580043862,2,21
4,1,6,p,1.3909357090014964,2,105
4,1,7,q,1.8071252499939872,2,19
4,1,8,q,1.176212583988672,1,110
4,1,9,p,0.8679777919896878,2,37
4,1,10,q,0.7688847919926047,1,20
4,1,11,q,0.7683482090069447,1,9
4,1,12,p,0.9389600830036215,1,107
4,1,13,p,0.831032125002821,2,11
4,1,14,p,0.7693413750093896,1,4
4,1,15,p,1.1175469169975258,1,33
4,1,16,p,1.1745262920012465,3,17
4,1,17,p,1.0679687920055585,2,23
4,1,18,p,0.957737332995748,3,12
4,1,19,p,1.0649011670029722,2,136
4,1,20,q,0.8580335840088082,2,49
4,1,21,q,0.7927928329881979,3,43
4,1,22,p,0.8399184589943616,1,106
4,1,23,q,0.7118475829920499,2,25
4,1,24,p,0.8902216669957852,2,113
4,1,25,q,0.9434313749952709,3,14
4,1,26,p,0.9306045420089504,3,38
4,1,27,p,1.0203233329957584,1,30
4,1,28,q,0.6696843749959953,1,51
4,1,29,p,0.7709368750074646,1,114
4,1,30,p,1.0347179170057643,1,36
4,1,31,q,1.044936999998754,1,53
4,1,32,q,0.9015411249856696,2,26
4,1,33,p,1.0388909580069594,2,71
4,1,34,q,1.5564032920083264,1,79
4,1,35,p,0.9959597919951192,3,108
4,1,36,p,1.1450934580061585,1,18
4,1,37,q,1.117997249995824,2,10
4,1,38,q,1.2866783750068862,1,2
4,1,39,q,1.0760943749919534,3,83
4,1,40,p,1.4024038330098847,3,144
4,1,41,p,1.3978889580030227,3,32
4,1,42,p,1.963430542004062,2,22
4,1,43,p,1.5085440420079976,1,139
4,1,44,p,1.1044697920006,3,111
4,1,45,q,1.6060284579871222,1,13
4,1,46,p,1.2181780419923598,1,109
4,1,47,q,1.3305119589931564,2,124
4,1,48,p,1.199243374998332,3,60
4,1,49,q,1.190315499989083,3,146
4,1,50,p,0.9241254999942612,2,104
4,1,51,q,0.8937586249958258,2,140
4,1,52,q,1.7068638749915408,2,41
4,1,53,q,1.161916500001098,3,39
4,1,54,p,0.8993146249995334,3,16
4,1,55,q,1.8757990409940248,1,27
4,1,56,p,1.1900984999956563,3,112
4,1,57,p,2.2328392500057817,3,141
4,1,58,q,0.8290467080078088,2,150
4,1,59,p,1.4960199159977492,1,57
4,1,60,p,1.1293512500124052,3,125
4,2,1,p,1.9555105829931565,3,9
4,2,2,q,0.893818625001586,1,146
4,2,3,p,1.1547294589981902,3,44
4,2,4,p,1.473050750006223,3,74
4,2,5,q,1.5913273750047665,1,47
4,2,6,p,1.5141283749981085,2,126
4,2,7,q,0.827597750001587,1,140
4,2,8,q,1.007044541009236,2,79
4,2,9,p,1.4644151249958668,3,45
4,2,10,p,1.5291717920044905,1,62
4,2,11,q,0.7940956249949522,1,141
4,2,12,q,1.805815707994043,1,10
4,2,13,q,1.5213084999995772,2,70
4,2,14,p,1.4413859580090502,3,73
4,2,15,p,1.7957228750019567,1,122
4,2,16,p,1.2143772080016788,1,64
4,2,17,q,1.4170767920004437,2,123
4,2,18,q,1.7814472090103664,1,68
4,2,19,p,1.528459292007028,3,52
4,2,20,q,1.483296958002029,1,118
4,2,21,p,1.3890452909981832,2,16
4,2,22,q,1.65754833300889,2,57
4,2,23,q,1.288210209007957,2,75
4,2,24,p,1.3418298340111503,1,7
4,2,25,q,0.8302633749990491,1,25
4,2,26,p,1.7147053750086343,1,61
4,2,27,q,1.4308946250093868,1,49
4,2,28,p,0.9664965420088264,3,50
4,2,29,p,2.028579667006852,1,117
4,2,30,p,0.8977093330031494,1,125
4,2,31,q,2.7460032910021255,2,120
4,2,32,q,1.4681036249967292,2,53
4,2,33,q,1.7679714999976568,2,28
4,2,34,q,1.6273746660008328,3,20
4,2,35,p,1.6717598750110485,2,66
4,2,36,q,1.4649581249977928,2,69
4,2,37,q,1.145833250004216,1,43
4,2,38,p,1.7192690829979256,3,150
4,2,39,q,1.2846220000064932,1,108
4,2,40,q,1.8877156659873435,1,67
4,2,41,p,1.5039586250059074,2,119
4,2,42,p,2.129554208004265,3,51
4,2,43,q,1.317765458006761,1,124
4,2,44,q,1.0656744580046509,2,60
4,2,45,p,0.7886320839897962,3,71
4,2,46,q,1.1308804169966606,3,116
4,2,47,q,1.0825598329975037,2,12
4,2,48,p,0.948977832988021,3,72
4,2,49,p,0.8472958750062389,3,59
4,2,50,p,1.9167523749929387,2,13
4,2,51,p,0.8034782089962391,2,128
4,2,52,q,0.9059184590005316,2,144
4,2,53,q,1.216973999995389,2,115
4,2,54,q,1.4948113749996992,1,21
4,2,55,q,0.9991272080078488,3,56
4,2,56,p,0.9155683330027388,3,42
4,2,57,q,1.124264124999172,3,139
4,2,58,p,1.5741006250027567,2,83
4,2,59,q,1.593427416999475,2,27
4,2,60,p,1.0023676250129938,1,136
4,3,1,q,1.4033072919992264,2,145
4,3,2,q,1.2834429999929853,2,87
4,3,3,p,2.1059511250059586,1,101
4,3,4,q,1.979813625002862,2,91
4,3,5,p,1.301461750001181,3,80
4,3,6,p,1.8629612090007868,3,78
4,3,7,p,1.4644461249990854,1,90
4,3,8,p,1.2942621249967488,1,89
4,3,9,q,1.4479092919937102,2,146
4,3,10,q,1.1303078749915585,2,94
4,3,11,p,1.338786958003766,2,9
4,3,12,p,1.6535980409971671,3,57
4,3,13,p,1.8859613750100832,2,77
4,3,14,p,1.6428436669957591,1,98
4,3,15,q,1.8749245830113068,2,97
4,3,16,q,1.730076708001434,2,108
4,3,17,q,0.9129862080008024,2,43
4,3,18,q,0.9065609169920208,3,93
4,3,19,p,1.0838290829997277,1,129
4,3,20,q,1.046811374995741,3,13
4,3,21,q,1.0235508749901785,3,25
4,3,22,p,1.4280318329983857,1,88
4,3,23,p,1.3745369579992257,1,92
4,3,24,p,1.3975649579952003,1,16
4,3,25,p,1.6473067909973906,2,84
4,3,26,q,0.9734720830019796,1,28
4,3,27,p,0.946919333000551,3,131
4,3,28,q,0.9223061660013628,1,81
4,3,29,q,0.9275100829981966,2,20
4,3,30,p,1.10505345799902,1,142
4,3,31,q,0.907728666003095,3,49
4,3,32,p,0.8306302080018213,3,82
4,3,33,p,0.8572697080089711,2,130
4,3,34,p,1.0574903340020685,3,132
4,3,35,q,0.9154097080026986,1,138
4,3,36,p,0.8049300420098007,3,143
4,3,37,q,1.0039043750002747,1,150
4,3,38,q,0.8577960420079762,3,10
4,3,39,q,0.8930177500005811,2,51
4,3,40,q,1.150643790999311,3,21
4,3,41,q,0.8742726249911357,2,141
4,3,42,p,0.8418829579895828,1,100
4,3,43,q,1.0618128749920288,1,144
4,3,44,q,0.8409215409919852,3,7
4,3,45,q,0.7929240419907728,2,135
4,3,46,p,0.8873577920021489,3,27
4,3,47,p,0.8536341250000987,1,95
4,3,48,q,1.312973583000712,3,79
4,3,49,q,1.1373543329973472,3,124
4,3,50,p,0.903637916999287,1,76
4,3,51,q,0.9910097919928376,3,53
4,3,52,p,1.0671530419931514,2,125
4,3,53,p,0.973091124993516,3,136
4,3,54,q,1.381037874991307,3,140
4,3,55,p,1.109430167009123,1,12
4,3,56,q,1.6075975419953463,3,134
4,3,57,p,1.1928142090037,1,71
4,3,58,p,1.509565542000928,1,83
4,3,59,q,1.1889710830000697,2,139
4,3,60,p,0.8485157920076745,1,60
5,1,1,q,1.4125474999891594,3,25
5,1,2,q,0.8501374170009512,1,122
5,1,3,q,1.170812875003321,3,114
5,1,4,p,0.927368332995684,2,19
5,1,5,p,1.187748707990977,2,22
5,1,6,p,1.2216483750089535,2,106
5,1,7,q,0.8877269579970744,2,110
5,1,8,p,1.2895350839971798,2,116
5,1,9,p,1.121052457994665,1,113
5,1,10,q,1.2002079589874484,1,38
5,1,11,q,0.806387916993117,1,32
5,1,12,p,1.0230532919958932,3,105
5,1,13,q,1.754016375009087,1,123
5,1,14,q,1.2254903330031084,1,1
5,1,15,q,1.0763830420037266,3,109
5,1,16,q,0.7883579579938669,3,70
5,1,17,q,0.999673125013942,1,111
5,1,18,p,0.8138911249989178,2,14
5,1,19,p,0.8863530829985393,3,33
5,1,20,p,0.9526544169930276,3,104
5,1,21,p,1.385151208989555,3,23
5,1,22,p,1.0216770000115505,2,11
5,1,23,q,0.962108249994344,3,125
5,1,24,q,1.3952069159859093,3,26
5,1,25,p,1.115597624986549,1,29
5,1,26,q,1.0048723749932833,1,51
5,1,27,p,0.8428928339999402,1,28
5,1,28,q,0.7998262909968616,3,37
5,1,29,q,1.8075884580030104,3,108
5,1,30,p,0.9304204170039156,2,27
5,1,31,p,0.700806791006471,2,18
5,1,32,q,0.8277094160002889,1,72
5,1,33,p,0.7931352500017965,3,30
5,1,34,q,0.7557017919898499,2,41
5,1,35,q,0.9627627080044476,3,9
5,1,36,q,0.6566681660042377,1,107
5,1,37,p,0.6927327500015963,2,88
5,1,38,p,0.7676873339951271,1,16
5,1,39,q,0.7308417500025826,3,120
5,1,40,q,1.0005789589922642,1,4
5,1,41,p,0.7000672919966746,3,39
5,1,42,p,0.6808268339955248,1,92
5,1,43,p,1.106019250000827,3,10
5,1,44,p,2.2117465839983197,3,97
5,1,45,q,1.047322541999165,2,112
5,1,46,p,0.8320038340025349,1,102
5,1,47,p,0.9062512919917936,2,2
5,1,48,p,1.241225208999822,2,118
5,1,49,q,0.7361531250062399,3,13
5,1,50,p,1.967930458005867,2,21
5,1,51,q,1.0224767500039889,2,117
5,1,52,p,0.7479735829983838,2,115
5,1,53,q,0.7051835830061464,1,12
5,1,54,p,0.7213340830057859,3,20
5,1,55,q,1.690755417002947,1,7
5,1,56,p,0.8238370420003776,3,36
5,1,57,p,1.0416707080003107,2,119
5,1,58,q,2.169213000001037,2,42
5,1,59,q,1.0067298329959158,1,17
5,1,60,q,0.8635992920026183,1,62
5,2,1,q,0.9128340419993036,3,106
5,2,2,p,1.0225182499998482,1,128
5,2,3,q,0.9442924579925602,2,72
5,2,4,p,1.0871514159953222,3,29
5,2,5,q,0.6911308329872554,2,109
5,2,6,q,0.7221986249933252,2,111
5,2,7,p,0.8694970000069588,3,57
5,2,8,q,0.7719320420001168,2,1
5,2,9,q,0.7654439580073813,1,52
5,2,10,p,0.760724667008617,3,44
5,2,11,p,0.9567942499998026,2,132
5,2,12,p,0.9413674999959768,1,64
5,2,13,p,0.8336507499916479,1,10
5,2,14,p,1.1750119159987662,1,33
5,2,15,q,0.7687188749987399,1,97
5,2,16,p,0.8465543339989381,2,47
5,2,17,p,1.546598208005889,2,56
5,2,18,p,0.9703047499933746,2,66
5,2,19,q,0.78826970900991,1,9
5,2,20,p,1.2226003749965455,1,131
5,2,21,q,0.7434139580000192,3,68
5,2,22,p,1.1004442919947903,1,130
5,2,23,q,0.7962220000044908,1,61
5,2,24,p,0.8552372499980265,1,59
5,2,25,p,1.5795394169981591,1,69
5,2,26,p,0.8229415000096196,2,67
5,2,27,p,0.7334137089928845,3,134
5,2,28,q,1.2066634170041652,3,11
5,2,29,q,1.1602730830054495,3,126
5,2,30,q,0.8066410000028554,2,62
5,2,31,q,0.7144624590000603,2,70
5,2,32,q,1.085836375001236,1,108
5,2,33,p,1.1861458330095047,2,25
5,2,34,p,1.559864666996873,2,60
5,2,35,q,0.8641956250066869,3,123
5,2,36,q,0.7688292499951785,3,110
5,2,37,p,0.7453761249926174,1,43
5,2,38,p,0.9036017080070452,1,50
5,2,39,p,2.014031458995305,1,45
5,2,40,q,2.861264041988761,1,41
5,2,41,q,0.9304480419959872,3,107
5,2,42,p,1.2918397920002462,3,102
5,2,43,p,1.5583780000015397,2,120
5,2,44,p,3.0337687080027536,2,129
5,2,45,q,0.6512601660069777,1,112
5,2,46,q,1.248955125003704,2,17
5,2,47,q,0.8528218749997905,2,92
5,2,48,p,0.6999821250064997,2,124
5,2,49,p,0.6521172920038225,2,136
5,2,50,p,0.6884552080009598,2,53
5,2,51,q,0.7184181659977185,1,125
5,2,52,p,0.721354875000543,1,49
5,2,53,q,0.6448149170028046,1,13
5,2,54,p,2.417581166999298,2,12
5,2,55,p,0.8545498750027036,1,71
5,2,56,q,0.9883723750099308,2,135
5,2,57,p,0.6184318750019884,2,73
5,2,58,p,0.9799912500020582,2,51
5,2,59,p,0.9707089160074248,3,88
5,2,60,p,0.9074338749924208,2,4
5,3,1,q,0.6910370840050746,1,120
5,3,2,p,0.6559052919910755,3,98
5,3,3,p,0.8193361669982551,2,80
5,3,4,p,0.7900045000133105,1,90
5,3,5,q,0.7903009160072543,1,109
5,3,6,q,0.6230289170052856,1,70
5,3,7,p,1.2405605410021965,2,10
5,3,8,q,0.6809599999978673,3,17
5,3,9,p,0.754764208002598,2,75
5,3,10,p,0.7185777499980759,2,76
5,3,11,q,0.6121158750029281,2,13
5,3,12,q,0.7389670420088805,2,87
5,3,13,p,0.8603742499981308,1,100
5,3,14,p,0.7534505829971749,1,79
5,3,15,q,1.116754957998637,3,41
5,3,16,p,1.0846483329951295,1,82
5,3,17,p,0.6713538329931907,3,139
5,3,18,p,0.7923339160042815,1,83
5,3,19,q,0.619090457999846,2,125
5,3,20,p,0.9182710830064024,2,33
5,3,21,q,1.4524702499911657,3,72
5,3,22,p,0.9660984999936773,1,94
5,3,23,p,0.9978582910116528,2,140
5,3,24,p,0.8130921249976382,1,74
5,3,25,p,0.6704550419963198,2,84
5,3,26,p,0.5969069169950671,1,138
5,3,27,p,1.114726707994123,3,147
5,3,28,q,0.8096212079981342,3,51
5,3,29,p,0.8894789170008153,1,93
5,3,30,p,1.894053083000472,2,89
5,3,31,q,0.7349672920099692,3,62
5,3,32,q,0.8410045000055106,2,107
5,3,33,q,1.3723480420012493,3,92
5,3,34,p,0.6712430420011515,1,11
5,3,35,p,0.745489249995444,3,146
5,3,36,p,0.6304681670007994,1,142
5,3,37,q,0.8814637909963494,3,112
5,3,38,q,2.457846667006379,2,123
5,3,39,q,1.132646832993487,2,102
5,3,40,p,0.683545709005557,2,144
5,3,41,p,0.7082351249991916,2,95
5,3,42,q,1.015747958997963,3,12
5,3,43,p,1.0330224160134094,3,141
5,3,44,p,0.8910443749919068,1,143
5,3,45,q,0.7469012920046225,1,110
5,3,46,q,0.9475977499969304,3,77
5,3,47,p,0.9162574160000077,1,81
5,3,48,p,0.8663748749968363,2,108
5,3,49,p,0.7195212090009591,2,29
5,3,50,p,2.3052922499919077,1,145
5,3,51,p,0.8663924159918679,3,78
5,3,52,p,1.063634834004915,2,91
5,3,53,p,1.0423544999939622,2,97
5,3,54,q,0.794510709005408,1,88
5,3,55,q,0.8700756670004921,3,4
5,3,56,q,1.1280488750053337,3,1
5,3,57,q,2.4953559169953223,1,25
5,3,58,q,0.8547878749959636,3,111
5,3,59,q,1.2562249159964267,1,106
5,3,60,p,0.8462697499926435,2,9
6,1,1,q,0.9678354999996372,3,70
6,1,2,p,0.8893572090019006,2,10
6,1,3,p,1.0175421659987478,3,110
6,1,4,q,0.9438181250006892,2,9
6,1,5,p,0.9085222499998054,1,18
6,1,6,q,0.8013799580003251,1,136
6,1,7,q,0.6745691659998556,1,12
6,1,8,p,0.6859937920016819,3,138
6,1,9,p,0.7416754999976547,3,7
6,1,10,q,0.530667999999423,2,38
6,1,11,p,0.7456391669984441,1,27
6,1,12,p,0.7272638340000412,3,112
6,1,13,p,1.0735408750006172,2,78
6,1,14,q,0.8839990409978782,2,135
6,1,15,p,0.8423927500007267,2,16
6,1,16,p,0.6306655000007595,1,123
6,1,17,p,0.8042302499998186,1,111
6,1,18,p,0.8425691670017841,1,105
6,1,19,p,0.79656220799734,1,115
6,1,20,q,0.9396775829991384,2,64
6,1,21,q,0.8574615830002585,2,73
6,1,22,q,0.7373301250008808,1,67
6,1,23,q,0.6713914590000059,1,37
6,1,24,p,0.6744031249982072,1,106
6,1,25,p,0.5910423749992333,3,30
6,1,26,q,0.7027491250009916,3,98
6,1,27,p,0.6170367080012511,2,25
6,1,28,p,0.7235669579968089,1,20
6,1,29,p,0.8256808339974668,2,1
6,1,30,q,0.7702323750017968,1,140
6,1,31,q,0.5918267909983115,1,104
6,1,32,p,0.6219057499984046,2,4
6,1,33,p,0.9651317499992728,3,76
6,1,34,p,0.7751747500005877,3,11
6,1,35,p,0.6714322920015547,2,134
6,1,36,p,0.8218342920008581,2,28
6,1,37,p,0.7134987499994168,3,36
6,1,38,p,0.8111530000023777,3,113
6,1,39,q,0.8159134589986934,2,141
6,1,40,p,0.7378241250007704,2,2
6,1,41,p,0.7291730830002052,2,21
6,1,42,p,0.5918847499997355,3,107
6,1,43,p,0.5620501249977679,3,19
6,1,44,p,0.6672160419984721,3,29
6,1,45,p,0.5762124169996241,3,114
6,1,46,p,0.6749291669984814,3,71
6,1,47,p,0.818444290998741,3,26
6,1,48,p,0.727726958997664,3,13
6,1,49,p,0.8565752920003433,3,17
6,1,50,p,0.7574783329982893,3,14
6,1,51,p,0.8123928749992047,1,109
6,1,52,q,0.6664869169981102,1,146
6,1,53,p,0.7824625419998483,3,92
6,1,54,q,0.7269726250015083,3,32
6,1,55,q,0.5700096250002389,3,91
6,1,56,p,0.6118361670014565,1,108
6,1,57,q,0.8668935829991824,1,23
6,1,58,q,0.9051922500002548,1,75
6,1,59,p,0.8324611669995647,3,60
6,1,60,q,0.7789384579991747,2,22
6,2,1,p,0.8220347499991476,3,50
6,2,2,q,0.474113167001633,3,104
6,2,3,q,0.5318352079993929,1,141
6,2,4,q,0.7035398339976382,2,49
6,2,5,p,0.6902018330001738,2,41
6,2,6,p,0.6475970829997095,2,60
6,2,7,q,0.5380334999972547,3,37
6,2,8,q,0.6218908750015544,2,123
6,2,9,q,0.5887287500008824,1,64
6,2,10,p,0.5875617080018856,2,42
6,2,11,q,0.7929806659994938,1,70
6,2,12,p,0.45462449999831733,3,117
6,2,13,q,0.6620928749980521,2,76
6,2,14,p,0.7398409999987052,2,138
6,2,15,p,0.5447275000005902,2,75
6,2,16,q,0.7006601249995583,2,146
6,2,17,p,0.6242226670001401,3,78
6,2,18,p,0.5794884169990837,3,9
6,2,19,q,0.6025116669989075,2,136
6,2,20,p,0.6103842919983435,1,73
6,2,21,q,0.6152771249981015,2,98
6,2,22,p,0.6681178339968028,2,119
6,2,23,p,0.5101709999980812,3,43
6,2,24,q,0.5943097919989668,3,38
6,2,25,q,0.7424283330001344,1,32
6,2,26,p,0.7328256670007249,2,62
6,2,27,q,0.580115458000364,3,22
6,2,28,p,0.5821647499979008,2,45
6,2,29,p,0.6394037919999391,2,71
6,2,30,p,0.6322188330013887,3,23
6,2,31,p,0.6468182919998071,3,122
6,2,32,p,0.5781812919994991,2,118
6,2,33,p,0.656293124997319,3,124
6,2,34,p,0.5236936250003055,2,68
6,2,35,p,0.5555537089967402,3,39
6,2,36,q,0.9437418330016952,2,108
6,2,37,q,0.5504415420000441,2,91
6,2,38,p,0.5573708330011868,2,92
6,2,39,p,0.6723536249992321,1,36
6,2,40,q,0.7719860409997636,3,67
6,2,41,q,0.6897486669986392,2,140
6,2,42,q,0.5912087920005433,3,12
6,2,43,p,0.6354773749990272,3,116
6,2,44,p,0.6990593330010597,1,134
6,2,45,q,0.602595125001244,1,135
6,2,46,p,0.9485713340000076,2,59
6,2,47,p,0.7435330420012178,3,128
6,2,48,p,0.954326208000566,2,61
6,2,49,p,0.7491087090020301,1,66
6,2,50,p,0.5926047499997367,3,126
6,2,51,p,0.5988600419987051,1,53
6,2,52,p,0.7493979999999283,2,33
6,2,53,p,1.1937483750007232,2,56
6,2,54,p,0.6851356250008394,1,47
6,2,55,p,0.9299140830007672,3,125
6,2,56,q,0.8009558330013533,1,52
6,2,57,p,0.5747188329987694,1,44
6,2,58,q,0.6481091669993475,1,120
6,2,59,p,0.5608638329977111,1,51
6,2,60,p,0.7074022500019055,3,57
6,3,1,p,0.799895916999958,1,76
6,3,2,q,0.8557213749991206,2,70
6,3,3,p,0.6902616669976851,2,90
6,3,4,q,0.5607276250011637,1,92
6,3,5,p,0.8524394169980951,3,75
6,3,6,p,0.5625327079978888,2,100
6,3,7,q,0.6158539589996508,3,64
6,3,8,q,0.5885507080020034,1,69
6,3,9,p,0.4683439580003323,1,145
6,3,10,p,0.7121138340007747,3,79
6,3,11,p,0.5785150000010617,2,80
6,3,12,p,0.7890479999987292,3,101
6,3,13,p,0.6902656250022119,2,144
6,3,14,q,0.6278679169990937,3,140
6,3,15,p,0.5728663329973642,1,132
6,3,16,q,0.565876083997864,1,91
6,3,17,p,0.544267375000345,3,142
6,3,18,q,0.7372906669988879,1,78
6,3,19,p,0.5661512080005195,3,72
6,3,20,p,0.8953414159987005,1,138
6,3,21,q,0.7669908339994436,2,12
6,3,22,p,0.71608974999981,1,71
6,3,23,p,0.7702752080003847,3,89
6,3,24,p,0.654067750001559,3,141
6,3,25,p,1.0641872080013854,2,131
6,3,26,q,0.8538062920015363,2,67
6,3,27,p,0.5417676249999204,2,23
6,3,28,p,0.5667822920004255,2,37
6,3,29,p,0.707597666001675,3,84
6,3,30,p,0.7391984580026474,2,88
6,3,31,p,0.647562291000213,3,93
6,3,32,q,0.5740228750000824,3,136
6,3,33,q,0.6254024590016343,3,146
6,3,34,p,0.6643691249992116,1,97
6,3,35,p,0.6691482079986599,3,81
6,3,36,p,0.6219711660014582,1,74
6,3,37,p,0.6083617910007888,3,129
6,3,38,p,0.7544278749992372,3,135
6,3,39,p,0.5461212920017715,2,143
6,3,40,q,0.6978873749976628,1,98
6,3,41,p,0.7110807089993614,1,82
6,3,42,p,0.6494266250010696,1,60
6,3,43,q,0.7628904160010279,3,108
6,3,44,q,0.7165889590032748,1,22
6,3,45,p,0.695405957998446,3,123
6,3,46,p,0.7301383330013778,2,77
6,3,47,p,0.6472565830008534,3,94
6,3,48,p,0.5888171670012525,2,95
6,3,49,p,0.6336087499985297,3,130
6,3,50,p,0.6742909580025298,2,147
6,3,51,p,0.8836512499983655,2,32
6,3,52,q,0.8975345409999136,3,134
6,3,53,q,0.7477788329997566,1,9
6,3,54,p,0.6113944589997118,2,139
6,3,55,p,0.4886398329981603,1,83
6,3,56,p,0.5148092919989722,1,87
6,3,57,p,0.523684374998993,3,73
6,3,58,q,0.6006685840002319,2,104
6,3,59,p,0.5745607089993428,2,36
6,3,60,p,0.5255931669998972,1,38
7,1,1,q,0.8726522919969284,3,151
7,1,2,q,0.6636783750000177,3,130
7,1,3,p,0.799187874999916,3,110
7,1,4,q,1.0937572919974627,3,19
7,1,5,p,1.2111243330000434,2,37
7,1,6,q,0.9940397500031396,1,134
7,1,7,p,1.1755657079993398,2,80
7,1,8,q,0.7992267910012743,2,25
7,1,9,p,1.312773207999271,3,112
7,1,10,q,1.2288024589979614,3,74
7,1,11,q,0.9148820000009436,1,7
7,1,12,q,1.436553042000014,2,43
7,1,13,q,1.0044908329982718,3,132
7,1,14,q,1.0478514159985934,1,26
7,1,15,q,1.0059084579988848,3,22
7,1,16,q,0.6221913329973177,1,107
7,1,17,p,1.7104822080000304,3,17
7,1,18,q,0.923976207999658,1,16
7,1,19,p,1.5911109160006165,3,4
7,1,20,q,0.7253710410004715,1,30
7,1,21,q,0.6102296660028514,1,106
7,1,22,p,1.177692917000968,1,60
7,1,23,q,0.9381654580029136,3,9
7,1,24,q,1.16538695899726,3,41
7,1,25,p,1.3084823329991195,3,2
7,1,26,p,1.1318644170023615,2,21
7,1,27,q,0.8713036660010403,2,122
7,1,28,p,0.8157718330003263,2,97
7,1,29,p,1.0843271250014368,3,109
7,1,30,q,1.9732261249992007,2,128
7,1,31,p,1.248482792001596,1,114
7,1,32,p,3.079553792002116,2,27
7,1,33,q,1.2430915420009114,1,28
7,1,34,q,1.2863470840020454,3,10
7,1,35,q,1.7491714589996263,2,33
7,1,36,q,1.4233592080017845,2,20
7,1,37,p,1.0170660419971682,1,104
7,1,38,q,0.8978355830004148,2,1
7,1,39,p,1.336672458997782,3,14
7,1,40,q,2.100969167000585,2,91
7,1,41,p,1.6624595829998725,3,18
7,1,42,q,1.7754487079982937,3,38
7,1,43,p,1.2989937080019445,2,115
7,1,44,p,1.4535136660015269,3,23
7,1,45,q,2.2103612079990853,1,94
7,1,46,p,0.97494370899949,1,105
7,1,47,p,0.8507849579982576,3,12
7,1,48,p,1.6288803749994258,2,111
7,1,49,p,1.5039164590016298,2,142
7,1,50,q,1.2323516249998647,1,108
7,1,51,q,1.5742166669988364,1,113
7,1,52,p,1.4605965000009746,1,32
7,1,53,p,1.4857556669994665,3,11
7,1,54,p,0.8312624580030388,2,36
7,1,55,p,2.9870510420005303,1,93
7,1,56,q,1.08508399999846,2,69
7,1,57,q,1.6431048340018606,2,144
7,1,58,p,1.777105708002637,2,13
7,1,59,p,1.1236089170015475,2,29
7,1,60,q,1.2071285829988485,2,53
7,2,1,p,1.1928939589997754,2,60
7,2,2,q,0.8503453750017798,1,91
7,2,3,q,1.1918026669991375,2,151
7,2,4,q,1.5427200410013029,2,70
7,2,5,q,0.9071129580006528,3,120
7,2,6,p,0.9057502079995174,3,128
7,2,7,p,1.2895184999979392,3,29
7,2,8,q,0.9843855829967652,3,94
7,2,9,q,1.5270038340022438,2,61
7,2,10,p,0.8488210840005195,1,80
7,2,11,q,2.7012752090013237,3,53
7,2,12,q,1.3914527909983008,1,21
7,2,13,p,1.3002910839968536,3,47
7,2,14,q,0.902207458999328,3,118
7,2,15,p,0.8453769170009764,3,49
7,2,16,p,1.1987732919988048,1,11
7,2,17,p,1.184720458000811,2,126
7,2,18,q,0.9694430830022612,3,117
7,2,19,q,1.032968957999401,3,43
7,2,20,p,0.97698866599967,3,45
7,2,21,p,0.9179454580007588,3,106
7,2,22,p,0.8415973330011184,3,119
7,2,23,p,0.8266768749999756,2,134
7,2,24,p,0.8096153750011581,1,142
7,2,25,p,0.6307832499987853,3,122
7,2,26,p,0.976026208998519,2,68
7,2,27,p,3.2759275839998736,2,44
7,2,28,q,1.0881410420006432,2,56
7,2,29,q,2.5537385000025097,1,64
7,2,30,q,1.1291317499999425,1,9
7,2,31,q,2.620934582999326,2,123
7,2,32,q,1.4248402919984071,2,107
7,2,33,q,0.9946770829992602,2,124
7,2,34,p,1.1752249589990242,2,12
7,2,35,q,1.2052490409987513,2,7
7,2,36,p,1.3959163750005246,1,18
7,2,37,q,1.095786958001554,1,41
7,2,38,q,0.9884691660008684,1,50
7,2,39,p,1.0851427919988057,3,36
7,2,40,p,1.576023666002584,2,39
7,2,41,q,0.9303084169987414,2,66
7,2,42,q,0.9226195410010404,1,13
7,2,43,q,1.5858991669992974,2,74
7,2,44,q,1.5064928749998217,3,69
7,2,45,q,1.0005377910019888,1,71
7,2,46,q,0.9189868749999732,2,132
7,2,47,p,0.8315028750002966,3,125
7,2,48,p,1.206778250001662,2,42
7,2,49,q,1.1480230830020446,3,116
7,2,50,q,1.2418562919992835,1,97
7,2,51,p,1.105153500000597,2,93
7,2,52,q,1.1894211250000808,3,144
7,2,53,q,1.198299624997162,3,59
7,2,54,q,1.5041585840008338,1,130
7,2,55,q,1.268617540998093,3,52
7,2,56,p,2.172001625000121,2,62
7,2,57,p,1.4648696250005742,2,129
7,2,58,q,2.543046124999819,2,51
7,2,59,q,0.7924861249994137,2,57
7,2,60,p,0.9336746670014692,1,67
7,3,1,p,1.1259890420005831,2,139
7,3,2,q,0.9002173340013542,1,74
7,3,3,q,0.9390375830007542,1,29
7,3,4,p,0.836684541998693,1,82
7,3,5,q,0.8392454170025303,3,91
7,3,6,q,0.7552059580011701,1,141
7,3,7,q,0.9160199590005504,3,13
7,3,8,q,0.8779964999994263,3,73
7,3,9,p,0.8898795420027454,3,135
7,3,10,q,1.3613802079999004,3,88
7,3,11,p,1.3410927500008256,1,128
7,3,12,p,1.135868124998524,3,101
7,3,13,q,0.9441251659991394,1,132
7,3,14,q,1.0913591669996094,1,36
7,3,15,p,0.9110355419979896,3,21
7,3,16,p,1.01677354200001,2,146
7,3,17,q,0.7429136249993462,3,80
7,3,18,p,0.956683874999726,2,84
7,3,19,q,0.735283417001483,2,41
7,3,20,q,1.083420709001075,3,142
7,3,21,p,0.7711484169994947,1,140
7,3,22,q,1.1304122500005178,1,72
7,3,23,q,1.5918872919974092,1,122
7,3,24,p,1.0685346249993015,2,106
7,3,25,q,0.6881379589976859,1,12
7,3,26,q,0.687636916001793,1,69
7,3,27,p,1.3589620419988933,1,92
7,3,28,q,1.141216167001403,3,93
7,3,29,q,0.7771556659972703,3,90
7,3,30,p,1.338431500000297,3,98
7,3,31,p,1.092211541999859,2,143
7,3,32,q,0.8669247500001802,1,78
7,3,33,p,0.6850627500025439,3,60
7,3,34,p,1.2424885840009663,1,145
7,3,35,p,0.8289042500000505,3,77
7,3,36,p,0.6036013749981066,3,75
7,3,37,q,0.6956813329998113,3,97
7,3,38,p,0.6867572910014133,3,76
7,3,39,q,1.358466916000907,2,79
7,3,40,q,0.983021000000008,3,134
7,3,41,q,0.7178644580017135,3,7
7,3,42,q,0.8162347080033214,2,138
7,3,43,q,0.9382853329989302,1,53
7,3,44,q,2.3147780420003983,2,94
7,3,45,p,1.1869148340010724,2,11
7,3,46,p,1.5343247089986107,2,136
7,3,47,q,0.7594281249985215,1,151
7,3,48,p,0.998313041000074,3,87
7,3,49,p,0.8881121670019638,2,18
7,3,50,q,0.7190290409998852,1,100
7,3,51,p,0.7635455420022481,2,95
7,3,52,p,0.7951830410020193,1,131
7,3,53,q,1.3594696660002228,1,89
7,3,54,q,1.0377439590010908,1,43
7,3,55,q,1.0453902499975811,1,144
7,3,56,p,0.9137726670014672,2,81
7,3,57,p,1.311919540999952,1,83
7,3,58,q,1.099186749997898,2,130
7,3,59,p,0.46949041599873453,2,9
7,3,60,p,0.7729042089995346,3,107
8,1,1,q,6.752381292000791,1,20
8,1,2,p,2.0111596249989816,3,14
8,1,3,q,2.0156947079995007,3,142
8,1,4,p,1.631258417000936,1,19
8,1,5,p,1.358182832998864,3,30
8,1,6,p,3.038216334000026,2,108
8,1,7,p,3.922357457999169,3,18
8,1,8,p,1.9523222919997352,2,27
8,1,9,p,2.9770023750024848,2,7
8,1,10,q,1.7501421670021955,2,98
8,1,11,q,1.587295459001325,2,23
8,1,12,q,1.3802622080002038,3,28
8,1,13,p,1.3331789580006443,2,12
8,1,14,q,1.099956416997884,3,59
8,1,15,q,1.7370037919972674,2,33
8,1,16,p,3.1600649590000103,3,72
8,1,17,p,1.340574583002308,3,36
8,1,18,q,1.0966927920017042,1,26
8,1,19,q,3.604621208000026,3,93
8,1,20,q,1.8642032919997291,1,49
8,1,21,p,1.082315750001726,1,16
8,1,22,q,2.5143046250013867,3,145
8,1,23,q,1.212347332999343,1,9
8,1,24,p,1.8699870829987049,1,11
8,1,25,q,1.2572046669993142,2,140
8,1,26,p,1.8174127919992316,2,66
8,1,27,p,1.408414667002944,2,123
8,1,28,p,1.9515167079989624,1,144
8,1,29,p,1.433237833000021,3,21
8,1,30,p,3.061890624998341,1,17
8,1,31,q,1.2641607910009045,1,105
8,1,32,p,1.9069501660014792,1,56
8,1,33,q,2.593344959001115,2,82
8,1,34,q,0.9456389999977546,2,139
8,1,35,p,2.463090583001758,3,79
8,1,36,p,2.2361854579976352,1,124
8,1,37,p,1.804252082998573,1,102
8,1,38,q,4.429412458001025,2,1
8,1,39,q,1.4108790409991343,3,91
8,1,40,p,1.3958099170013156,1,114
8,1,41,q,0.8651887500018347,1,53
8,1,42,p,0.8565175410003576,2,29
8,1,43,q,1.677958167001634,1,43
8,1,44,q,1.7150822920011706,2,110
8,1,45,p,1.160928250003053,3,113
8,1,46,q,2.441967750000913,2,25
8,1,47,q,1.5848215419973712,1,132
8,1,48,p,1.8916777089980312,2,13
8,1,49,q,1.580595457999152,2,101
8,1,50,p,1.7885868750017837,2,2
8,1,51,p,1.3262320419999014,3,22
8,1,52,q,3.534484625000914,1,4
8,1,53,p,1.0580627499984985,3,111
8,1,54,p,1.3492195830003766,2,10
8,1,55,p,2.528758625001501,1,112
8,1,56,p,4.203817582998454,1,106
8,1,57,p,2.186999209003261,2,109
8,1,58,q,3.671091415999399,1,107
8,1,59,p,1.372398625000642,3,104
8,1,60,p,1.466137667001021,1,115
8,2,1,q,2.5853076670027804,3,50
8,2,2,p,1.8605176249984652,3,125
8,2,3,q,1.473398416001146,2,56
8,2,4,p,1.321558791998541,3,32
8,2,5,q,1.8067334580009629,1,23
8,2,6,q,1.3690723749969038,1,66
8,2,7,p,1.4940502499994182,1,126
8,2,8,q,1.4014892499981215,1,140
8,2,9,q,1.4087722500007658,3,139
8,2,10,q,2.9365988749996177,2,36
8,2,11,p,1.79725375000271,1,52
8,2,12,p,2.6783539579992066,2,62
8,2,13,p,3.0215928750003513,2,102
8,2,14,p,2.062687541998457,3,41
8,2,15,q,1.4050741669998388,1,33
8,2,16,p,1.6307091659982689,2,51
8,2,17,p,1.856176332999894,2,42
8,2,18,p,1.882791707997967,3,64
8,2,19,q,1.47576191600092,2,91
8,2,20,p,1.5810156670013384,1,119
8,2,21,p,1.3662287089973688,1,72
8,2,22,p,2.49013129100058,2,49
8,2,23,p,1.230662416000996,3,38
8,2,24,q,1.4416962079994846,3,110
8,2,25,p,1.2767774580024709,2,142
8,2,26,q,3.948761250001553,1,82
8,2,27,q,1.6807290420001664,1,2
8,2,28,p,1.8435030830005417,2,43
8,2,29,q,5.772235540996917,2,67
8,2,30,p,2.37074579199907,1,117
8,2,31,p,1.937043625002843,2,44
8,2,32,q,1.683942042000126,3,105
8,2,33,p,2.8681105420000677,3,68
8,2,34,q,1.6756776670008549,1,93
8,2,35,p,1.7144810419995338,1,116
8,2,36,q,2.403494624999439,1,145
8,2,37,p,2.237021042001288,1,57
8,2,38,q,2.812866833002772,2,79
8,2,39,p,1.3142026669993356,3,45
8,2,40,p,1.5012434579984983,1,129
8,2,41,p,1.6327422079993994,2,47
8,2,42,p,1.7642240409986698,1,122
8,2,43,p,3.983664082999894,1,128
8,2,44,p,1.199018333998538,3,118
8,2,45,p,2.436628125000425,2,28
8,2,46,p,1.4951090829999885,1,123
8,2,47,p,1.652039042000979,3,60
8,2,48,p,3.20238558300116,2,132
8,2,49,p,1.5681600000025355,1,39
8,2,50,q,3.0973692090010445,1,69
8,2,51,p,4.223545875000127,1,120
8,2,52,p,1.4728400829990278,3,144
8,2,53,q,1.7496681249976973,3,37
8,2,54,p,2.090893459000654,1,61
8,2,55,q,1.4215703749978277,3,9
8,2,56,q,1.2532667909981683,1,101
8,2,57,p,1.7252166669968574,2,124
8,2,58,q,2.088830707998568,3,98
8,2,59,q,1.13109829199675,1,59
8,2,60,q,2.7224982080006157,2,53
8,3,1,p,2.641478833000292,2,71
8,3,2,q,1.800274500001251,3,132
8,3,3,p,1.6584222080018662,2,93
8,3,4,q,1.5220204159995774,1,36
8,3,5,p,1.1583789579999575,1,80
8,3,6,q,1.214180082999519,3,33
8,3,7,q,1.0339385410006798,3,101
8,3,8,p,2.1441911670008267,1,83
8,3,9,p,2.0424055830008,3,73
8,3,10,p,2.4567552090011304,2,72
8,3,11,p,2.1094758340004773,3,95
8,3,12,q,1.1736867079998774,1,98
8,3,13,p,1.1625050000002377,2,143
8,3,14,p,1.3171041249988775,2,77
8,3,15,p,2.192957708000904,1,28
8,3,16,q,1.6874059159999888,1,142
8,3,17,q,2.97045687499849,3,66
8,3,18,p,5.1499885830016865,2,78
8,3,19,q,1.1889031669998076,2,59
8,3,20,p,1.3286914579985023,1,92
8,3,21,q,1.5249850830005016,2,9
8,3,22,q,4.147377707999112,3,123
8,3,23,p,1.3181188339985963,1,136
8,3,24,p,1.6224545000004582,3,23
8,3,25,p,5.782901916998526,3,43
8,3,26,p,1.328939667000668,2,144
8,3,27,q,1.7761304580017168,3,102
8,3,28,p,1.5198698339991097,2,94
8,3,29,p,1.351709750000737,2,74
8,3,30,p,1.6759469580028965,1,138
8,3,31,p,2.3085852920012258,3,56
8,3,32,p,1.5159968749976542,1,81
8,3,33,p,1.2189732499973616,1,88
8,3,34,q,1.2147752919991035,3,140
8,3,35,p,1.8830215420020977,2,147
8,3,36,p,1.2188788749990636,2,141
8,3,37,p,3.617818915998214,3,82
8,3,38,q,1.4826014999998731,2,145
8,3,39,p,2.37314754199906,3,2
8,3,40,p,1.7554027080004744,2,90
8,3,41,q,4.019297124999866,3,75
8,3,42,p,1.9276443750022736,2,70
8,3,43,p,1.770537000000331,3,124
8,3,44,p,2.7041205000023183,2,135
8,3,45,p,1.4686823330011975,2,76
8,3,46,q,1.297627874999307,1,79
8,3,47,p,3.216588249997585,2,105
8,3,48,q,4.027702457999112,3,53
8,3,49,q,2.0823537910000596,3,49
8,3,50,q,2.288948583001911,1,110
8,3,51,p,1.7824313329983852,1,131
8,3,52,p,1.3509294590003265,2,97
8,3,53,q,1.6624055840002256,1,139
8,3,54,q,1.796523666002031,1,91
8,3,55,p,1.925426415997208,1,130
8,3,56,p,2.0361638340000354,2,84
8,3,57,p,2.566110457999457,3,87
8,3,58,p,2.642784166000638,1,146
8,3,59,p,1.7404631660028826,3,134
8,3,60,p,1.7857655829975556,1,89
9,1,1,q,8.551710707999973,1,140
9,1,2,p,2.1170542090001163,2,7
9,1,3,q,0.8205668339999193,1,57
9,1,4,p,1.9487812499999109,3,29
9,1,5,p,1.3506074580000131,1,108
9,1,6,q,1.4583620000000792,1,11
9,1,7,q,0.9524569169998358,2,28
9,1,8,p,1.1161236250000002,3,25
9,1,9,q,1.055913124999961,3,50
9,1,10,p,1.026621250000062,1,27
9,1,11,p,0.8573016660000121,3,23
9,1,12,p,0.748163083999998,3,18
9,1,13,q,1.543398915999887,3,113
9,1,14,p,0.7564964590001182,1,19
9,1,15,p,0.9737365829998909,3,33
9,1,16,q,1.082858041999998,3,1
9,1,17,q,0.8750305419998767,3,20
9,1,18,q,1.0461972909999986,3,115
9,1,19,q,0.7816060830000424,2,73
9,1,20,q,0.8676390420000644,2,32
9,1,21,p,0.8668822920001276,1,109
9,1,22,p,0.7472860840000521,3,9
9,1,23,p,1.5478515419999894,1,16
9,1,24,p,1.170195333000038,1,26
9,1,25,p,1.7798586670000986,3,13
9,1,26,p,0.9711226669999178,3,36
9,1,27,q,0.7679136250001193,2,2
9,1,28,q,0.7907989590000852,3,66
9,1,29,p,3.744127499999877,2,106
9,1,30,p,1.0375621250000222,2,110
9,1,31,p,2.1491462499998306,1,111
9,1,32,p,0.7618518750000476,1,104
9,1,33,p,0.8307505840000431,1,112
9,1,34,q,0.7193354999999428,1,4
9,1,35,p,0.6502400829999715,3,37
9,1,36,p,1.2052437080001257,3,114
9,1,37,q,0.7293634579998525,2,90
9,1,38,p,1.0597632080000494,3,14
9,1,39,q,2.4324208329999237,1,135
9,1,40,q,1.2507580000001326,3,75
9,1,41,p,1.4013597919999938,2,12
9,1,42,q,0.843762125000012,1,76
9,1,43,q,0.7302138329998797,3,143
9,1,44,q,1.5372776250001152,3,107
9,1,45,p,1.295033999999987,3,21
9,1,46,p,0.9541010829998412,1,17
9,1,47,q,1.1658623749999606,3,94
9,1,48,p,1.0240092080000522,2,10
9,1,49,q,1.9022524580000209,3,125
9,1,50,q,5.108973749999905,1,120
9,1,51,p,2.1817922919999546,2,129
9,1,52,q,1.2797685840000668,1,89
9,1,53,p,1.160454958000173,1,30
9,1,54,q,0.923029583000016,2,105
9,1,55,p,1.1998000839998897,3,49
9,1,56,q,3.2394860409999637,2,128
9,1,57,p,1.381427082999835,1,102
9,1,58,q,3.5887480000001233,2,88
9,1,59,q,0.9013113329999668,3,22
9,1,60,q,0.879338166000025,3,148
9,2,1,q,4.828608041000052,3,105
9,2,2,p,1.7040611670001908,3,64
9,2,3,p,0.7727493330000925,2,38
9,2,4,p,1.0139811250001003,3,131
9,2,5,p,1.0531591670001037,1,51
9,2,6,q,1.3081985000001168,1,20
9,2,7,p,1.088336874999868,1,33
9,2,8,p,1.8112977079999837,3,52
9,2,9,p,1.003426750000017,1,43
9,2,10,q,0.8180019169999468,1,2
9,2,11,q,0.7905383750000965,1,50
9,2,12,q,3.839062624999997,3,30
9,2,13,p,0.9779971670000124,2,56
9,2,14,p,1.722595582999929,2,69
9,2,15,p,0.8019454589998531,1,90
9,2,16,p,0.6632207079999262,1,28
9,2,17,q,0.9357882909998808,1,94
9,2,18,p,2.735255207999898,1,128
9,2,19,p,0.9317936249999548,1,49
9,2,20,p,0.768684291999989,3,4
9,2,21,p,0.8703617500000291,1,53
9,2,22,p,0.6538540840001588,2,41
9,2,23,p,3.973651040999812,2,119
9,2,24,p,0.6682018750000225,3,59
9,2,25,q,1.843750499999942,3,135
9,2,26,p,3.397057041999915,1,117
9,2,27,q,1.0883579579999605,2,115
9,2,28,p,1.0929807499999242,1,129
9,2,29,q,2.45993020800006,3,120
9,2,30,p,0.6783390420000615,2,45
9,2,31,p,1.5430367910000768,2,124
9,2,32,p,0.6660535830001209,3,130
9,2,33,p,0.6004890419999356,3,42
9,2,34,p,0.7865113750001456,2,62
9,2,35,q,0.826629500000081,3,76
9,2,36,p,1.3507022080000295,2,118
9,2,37,q,3.5518767089999983,1,47
9,2,38,p,0.988274666000052,1,126
9,2,39,q,1.2600913339999806,3,140
9,2,40,p,0.8986902090000513,2,66
9,2,41,p,0.869370624999874,2,44
9,2,42,p,0.9662242090000746,1,75
9,2,43,p,1.043570499999987,2,116
9,2,44,p,0.8760521670001253,3,61
9,2,45,q,6.0966840839998895,2,67
9,2,46,p,1.5486932919998253,2,102
9,2,47,p,0.8583066250000684,2,68
9,2,48,q,5.244563540999934,2,148
9,2,49,p,1.110342707999962,3,123
9,2,50,q,0.8074384589999681,1,125
9,2,51,p,0.9568133340001168,2,122
9,2,52,p,0.8420722500000011,2,39
9,2,53,q,1.957307208999964,2,60
9,2,54,q,4.181129833000114,3,57
9,2,55,p,1.950424166000175,1,32
9,2,56,p,1.4530026670001917,3,73
9,2,57,p,1.2218167089999952,1,88
9,2,58,q,0.7941226660000211,1,143
9,2,59,p,1.0242887910001173,3,89
9,2,60,q,1.0658337499999109,1,22
9,3,1,q,2.5978929580001022,2,135
9,3,2,p,0.8187983749999148,3,128
9,3,3,p,1.5216344580001078,2,89
9,3,4,p,1.0477392919999602,1,82
9,3,5,p,1.537242957999979,1,138
9,3,6,q,0.7255425840000953,2,125
9,3,7,p,1.0242240420000144,1,66
9,3,8,q,0.7186717499998849,2,22
9,3,9,p,0.8063798329999372,2,20
9,3,10,p,0.7175038329999097,1,98
9,3,11,p,0.6876049999998486,2,139
9,3,12,p,0.7493300839998938,2,71
9,3,13,p,1.8388845000001768,1,146
9,3,14,p,0.7861790829999791,2,84
9,3,15,p,0.5966462920000595,2,142
9,3,16,p,1.9964942499998417,1,74
9,3,17,p,0.8722595420001653,3,97
9,3,18,q,0.8569595419999132,2,140
9,3,19,q,0.7897681249999096,2,94
9,3,20,p,1.249879749999991,2,49
9,3,21,p,3.904267791999928,2,33
9,3,22,p,1.393214665999949,2,120
9,3,23,q,4.904255917,2,50
9,3,24,p,2.1962343339998824,1,73
9,3,25,p,1.15616858400017,3,90
9,3,26,p,0.7368672909999532,3,80
9,3,27,q,0.9466506250000748,3,28
9,3,28,p,0.6580462079998597,1,91
9,3,29,p,0.6353409580001426,2,132
9,3,30,q,4.244330375000118,2,57
9,3,31,p,0.7293451660000301,3,144
9,3,32,p,1.5435027080000054,3,88
9,3,33,p,0.8987600830000702,1,77
9,3,34,q,1.1372796660000404,1,105
9,3,35,p,0.7299545000000762,2,95
9,3,36,p,1.0834128750000218,3,129
9,3,37,p,0.6897522919998664,1,72
9,3,38,q,1.5028596660001767,2,76
9,3,39,p,0.6914560830000482,3,32
9,3,40,p,1.3470324160000473,2,141
9,3,41,p,0.8531450000000405,2,81
9,3,42,p,1.0186630000000605,1,70
9,3,43,p,1.2457726249999723,3,79
9,3,44,p,0.6017619589999867,3,93
9,3,45,p,0.7984474579998277,3,145
9,3,46,p,0.8724064589998761,1,87
9,3,47,q,1.0163964170001236,1,115
9,3,48,p,0.9844582499999888,3,78
9,3,49,q,2.6565566249998938,2,134
9,3,50,p,0.8725587080000423,2,4
9,3,51,q,0.8598605829999997,1,148
9,3,52,p,0.7583281659999557,3,100
9,3,53,p,0.6932017079998332,3,92
9,3,54,p,1.2039762920001067,2,136
9,3,55,q,2.842774666999958,3,2
9,3,56,p,0.8105191659999491,2,30
9,3,57,p,0.606248542000003,2,83
9,3,58,p,1.5015886249998402,3,102
9,3,59,q,0.9214796250000744,2,143
9,3,60,p,1.039002666999977,2,75
10,1,1,p,1.7213956250002411,2,23
10,1,2,q,1.412722125000073,3,25
10,1,3,q,0.8987601660001019,1,100
10,1,4,p,1.9028849169999376,3,118
10,1,5,q,0.7499804580002092,3,136
10,1,6,p,2.208407999999963,3,78
10,1,7,q,1.440650000000005,3,1
10,1,8,p,2.326043208000101,1,10
10,1,9,p,0.8739512080001077,2,4
10,1,10,q,1.6982557080000331,3,13
10,1,11,q,1.3129192090000288,3,87
10,1,12,p,1.4638612500002637,3,12
10,1,13,q,1.0252458750001097,3,77
10,1,14,q,1.347998541999914,2,126
10,1,15,q,0.8638951249999991,3,93
10,1,16,p,1.342879875000108,1,114
10,1,17,p,1.0739445419999356,3,22
10,1,18,q,0.8305272499997045,3,38
10,1,19,p,1.940511916000105,3,111
10,1,20,q,0.8138107080003465,1,2
10,1,21,p,1.0770554160003485,3,104
10,1,22,q,0.93973379199997,2,143
10,1,23,p,1.5233077079997202,1,9
10,1,24,q,0.7122391249999964,2,27
10,1,25,q,0.9428148340002735,1,49
10,1,26,q,1.0290706249998038,3,68
10,1,27,p,0.7774516670001503,2,21
10,1,28,q,0.8054475419999108,1,66
10,1,29,q,0.8045093750001797,1,59
10,1,30,q,1.354157000000214,3,61
10,1,31,q,2.447256667000147,3,151
10,1,32,p,3.3496779590000187,1,18
10,1,33,p,0.9198801249999632,3,17
10,1,34,p,1.2626717090001875,3,14
10,1,35,q,0.9936442079997504,3,112
10,1,36,q,0.9406167089996416,3,132
10,1,37,p,1.1577710830001706,3,28
10,1,38,p,0.8420045410002786,2,115
10,1,39,q,0.7534633750001376,1,147
10,1,40,q,3.1273959589998412,2,64
10,1,41,p,0.9287064589998408,2,7
10,1,42,q,3.14039374999993,2,75
10,1,43,q,0.9204511249999996,1,90
10,1,44,q,1.462238583999806,3,113
10,1,45,p,3.855127541999991,3,141
10,1,46,p,1.0437722910000955,3,20
10,1,47,q,1.0023096249997252,1,47
10,1,48,p,0.8847951249999824,2,109
10,1,49,q,1.141518165999969,2,71
10,1,50,q,0.990662125000199,2,19
10,1,51,p,1.2682469169999422,1,105
10,1,52,p,2.4543030830000134,3,107
10,1,53,p,1.834189042000162,2,110
10,1,54,p,1.987111417000051,2,26
10,1,55,q,0.8535161660001904,2,29
10,1,56,p,3.2252396250000857,1,108
10,1,57,q,4.349814624999908,2,30
10,1,58,p,1.3985979999997653,1,16
10,1,59,q,6.608888708999984,1,106
10,1,60,q,1.166518250000081,3,11
10,2,1,p,1.6665753749998655,2,41
10,2,2,p,1.4177013749999787,1,37
10,2,3,q,0.8671718339996914,3,60
10,2,4,q,1.1443666669997583,2,132
10,2,5,q,1.7138626249998197,1,56
10,2,6,q,0.9011752500000512,1,68
10,2,7,q,0.9296211250002672,3,90
10,2,8,q,0.972974959000112,3,49
10,2,9,q,1.0296663330000229,1,141
10,2,10,q,0.9025065410000934,2,77
10,2,11,p,2.949391208000179,2,52
10,2,12,p,1.3173744999999144,3,39
10,2,13,q,0.9457896670000993,3,126
10,2,14,p,1.6647164159999193,1,43
10,2,15,q,0.8194646669999202,1,64
10,2,16,q,0.8400392910002665,1,71
10,2,17,q,0.8448191669999687,1,136
10,2,18,q,1.1461797500001012,2,147
10,2,19,q,1.3057710420002877,2,18
10,2,20,p,1.1646368749998146,2,45
10,2,21,q,5.623624874999678,2,93
10,2,22,p,1.7614111670000057,2,120
10,2,23,q,1.7130544999999984,2,66
10,2,24,q,1.6956436669997856,1,75
10,2,25,q,1.3585165419999612,1,143
10,2,26,p,2.86060229099985,2,100
10,2,27,p,0.9163308329998472,3,33
10,2,28,p,0.7955817919996662,2,57
10,2,29,q,1.1782949590001408,2,2
10,2,30,p,0.8929034580000916,3,42
10,2,31,q,1.1103686249998646,1,19
10,2,32,q,3.52066458399986,2,32
10,2,33,p,0.7486947919996965,1,128
10,2,34,p,4.116770874999929,1,53
10,2,35,q,1.049310208999941,2,38
10,2,36,q,2.9915333330000067,2,78
10,2,37,p,1.4900286249999226,1,62
10,2,38,q,1.536383915999977,1,151
10,2,39,p,1.1052795000000517,1,67
10,2,40,q,0.8586783749997267,1,27
10,2,41,q,1.317276541999945,1,61
10,2,42,q,0.9264079159997892,1,113
10,2,43,p,1.9083699579996392,3,50
10,2,44,p,2.0647354580000865,3,47
10,2,45,p,3.20984104199988,2,36
10,2,46,p,2.7337547500001165,2,129
10,2,47,q,1.2146697080002014,2,87
10,2,48,p,2.603454916999908,1,119
10,2,49,p,3.694685125000433,1,122
10,2,50,p,3.494471167000029,1,51
10,2,51,p,4.752038249999714,1,69
10,2,52,q,1.23333754100031,1,112
10,2,53,q,0.9549232079998546,2,59
10,2,54,p,3.8710647090001657,2,118
10,2,55,p,0.9704913750001652,2,116
10,2,56,p,1.7010780840000734,3,117
10,2,57,p,0.855092415999934,3,124
10,2,58,p,2.9171961249999185,3,123
10,2,59,p,0.9436387920000016,3,44
10,2,60,q,0.9086690409999392,2,125
10,3,1,q,1.5435854170000312,1,77
10,3,2,p,3.2948020829999223,1,73
10,3,3,p,2.2113040410004032,2,89
10,3,4,q,0.8028267909999158,1,93
10,3,5,q,0.8884567499999321,3,66
10,3,6,p,1.0232084170002054,3,98
10,3,7,q,0.7021870829998988,3,19
10,3,8,p,3.228846040999997,1,91
10,3,9,p,5.3928342500003055,3,131
10,3,10,p,1.7972612080002364,3,130
10,3,11,q,0.8882077079997543,1,140
10,3,12,q,1.1808054170001014,2,90
10,3,13,q,6.11351999999988,2,79
10,3,14,q,0.8617652500001896,2,141
10,3,15,q,1.923638457999914,2,134
10,3,16,q,1.3692458340001394,1,132
10,3,17,q,0.8972742910000306,1,126
10,3,18,q,0.697529042000042,1,87
10,3,19,p,2.742719791000127,3,74
10,3,20,q,1.0082301659999755,2,136
10,3,21,q,0.9097232909998638,3,100
10,3,22,q,1.2626279999999497,1,38
10,3,23,p,0.9260504580001908,3,76
10,3,24,p,1.190281916999993,2,72
10,3,25,q,0.8665326669997739,3,2
10,3,26,q,1.1268581250001262,2,49
10,3,27,q,0.7611059159999058,2,112
10,3,28,q,0.782462791999933,3,147
10,3,29,q,0.6753092089998063,3,27
10,3,30,p,1.8121979170000488,2,88
10,3,31,p,3.0806681670001126,1,81
10,3,32,q,1.74060766599996,1,78
10,3,33,q,0.7490114170000197,3,75
10,3,34,p,1.6259906670002238,2,70
10,3,35,q,1.177049458000056,2,47
10,3,36,p,5.868728334000025,1,135
10,3,37,q,0.9355431669996506,2,151
10,3,38,p,4.421885333999853,2,95
10,3,39,q,0.7538445830000455,2,113
10,3,40,p,1.552308667000034,3,83
10,3,41,q,1.023761458000081,3,92
10,3,42,q,0.8524377499998081,2,68
10,3,43,p,1.1287941250002405,1,139
10,3,44,p,1.781066125000052,1,84
10,3,45,p,1.3064692910002125,2,144
10,3,46,q,0.9154383750001216,3,71
10,3,47,p,1.401416749999953,1,145
10,3,48,q,0.9765336249997744,3,64
10,3,49,p,1.1265017910000097,2,94
10,3,50,p,2.4115768750002644,1,142
10,3,51,q,0.9805804580000768,1,118
10,3,52,q,4.138843790999999,3,18
10,3,53,p,1.2866132500003005,3,80
10,3,54,q,1.180377333999786,3,59
10,3,55,p,1.1049711249997929,1,138
10,3,56,p,3.607397416999902,1,97
10,3,57,p,1.5638250420001896,2,82
10,3,58,q,0.6710026669998115,3,143
10,3,59,p,1.4953476660002707,2,101
10,3,60,q,1.1153602919998775,2,61
11,1,1,q,0.7836867079968215,2,111
11,1,2,q,0.6360794169995643,3,13
11,1,3,p,0.7172036250012752,1,116
11,1,4,p,1.209629083001346,2,114
11,1,5,q,0.670730874997389,1,33
11,1,6,q,0.6023579159991641,1,79
11,1,7,q,1.0158137079997689,2,1
11,1,8,q,0.6849718339981337,3,113
11,1,9,q,0.7719166249989939,2,25
11,1,10,p,0.7212284170018393,1,37
11,1,11,q,0.920721542002866,2,112
11,1,12,p,1.001184374999866,3,4
11,1,13,p,1.0261387079990527,3,106
11,1,14,q,0.6989725409985112,1,19
11,1,15,q,1.0383759160031332,3,73
11,1,16,q,0.904754208000668,3,26
11,1,17,q,0.9039397910019034,2,110
11,1,18,p,1.1272195409983397,2,108
11,1,19,p,1.1899074579996525,1,28
11,1,20,q,0.8191220000007888,3,20
11,1,21,q,0.7218945829990844,3,77
11,1,22,q,0.9161275000005844,2,129
11,1,23,q,1.4009958339993318,3,11
11,1,24,q,1.1072567919982248,1,17
11,1,25,p,1.6426571660012996,1,134
11,1,26,q,1.363278333999915,2,44
11,1,27,p,1.645445334001124,1,14
11,1,28,q,1.5991987499983225,2,22
11,1,29,q,1.9574011669974425,3,9
11,1,30,p,1.4078406660009932,3,123
11,1,31,q,1.0605101250002915,1,60
11,1,32,p,1.6538474170010886,3,23
11,1,33,q,1.5043950420003966,2,7
11,1,34,q,1.5904704999993555,3,53
11,1,35,p,1.1764989579969551,2,144
11,1,36,p,1.9377217500004915,1,36
11,1,37,q,0.9656067500000064,1,50
11,1,38,q,1.3314339169992309,1,27
11,1,39,p,2.461969792002492,2,140
11,1,40,p,1.5296544580014595,2,115
11,1,41,q,0.9684245419994112,3,64
11,1,42,p,0.976835667002888,2,109
11,1,43,p,1.2160797910000838,3,16
11,1,44,q,0.8558269169989217,3,2
11,1,45,q,1.0785002920019906,3,12
11,1,46,p,1.791994582999905,1,107
11,1,47,p,1.4392284589994233,3,136
11,1,48,p,2.9786054579999472,3,30
11,1,49,q,1.4981513749989972,2,18
11,1,50,q,1.3469814169984602,1,117
11,1,51,q,1.1366703749990847,3,10
11,1,52,p,1.79698666600234,1,105
11,1,53,q,0.9711573749991658,2,90
11,1,54,p,0.8153218749976077,1,104
11,1,55,q,1.727707999998529,1,29
11,1,56,q,1.8064509169998928,3,43
11,1,57,q,2.062658707996889,1,61
11,1,58,p,1.7291919579984096,3,21
11,1,59,q,1.3960696670001198,1,83
11,1,60,p,1.2366510830033803,3,32
11,2,1,q,1.0230325829979847,3,52
11,2,2,p,0.994057250001788,2,73
11,2,3,q,0.8398271250007383,2,50
11,2,4,p,1.5030717500012545,2,66
11,2,5,q,1.8322228329998325,3,131
11,2,6,p,1.0185687500015774,1,39
11,2,7,p,2.057595666999987,3,67
11,2,8,q,0.946920250000403,2,122
11,2,9,q,0.7999207920001936,1,7
11,2,10,q,1.3599294999985432,1,140
11,2,11,q,1.3597484579986483,3,90
11,2,12,p,1.4965667910000775,2,123
11,2,13,p,1.508731165999052,1,49
11,2,14,q,1.3016625409982223,2,83
11,2,15,q,1.99533291699845,1,71
11,2,16,p,0.91728029099977,3,130
11,2,17,p,1.3084477919983328,2,61
11,2,18,q,1.817304749998584,1,120
11,2,19,q,0.9621494589991926,2,77
11,2,20,p,1.604099790998589,2,128
11,2,21,q,0.804400084001827,2,68
11,2,22,q,2.143276416001754,3,112
11,2,23,p,2.243385333000333,1,124
11,2,24,p,1.245325584000966,3,51
11,2,25,q,1.048207084000751,2,70
11,2,26,p,0.9237499580012808,1,38
11,2,27,p,0.8331087910009956,1,59
11,2,28,q,0.8703911249976954,1,56
11,2,29,q,2.032637292002619,2,119
11,2,30,p,3.872783625000011,3,62
11,2,31,p,0.8514987499984272,2,41
11,2,32,q,1.9878696670020872,2,118
11,2,33,q,1.9190682500011464,2,125
11,2,34,p,1.0377768329999526,1,126
11,2,35,q,1.8989328330026185,3,110
11,2,36,p,1.1233104999992063,2,42
11,2,37,q,1.0890617090008163,3,111
11,2,38,q,2.289297916002397,1,12
11,2,39,p,0.7661684999984573,3,72
11,2,40,p,1.7943620829973952,1,57
11,2,41,q,2.7001833750000515,1,136
11,2,42,q,0.8035570829997596,1,1
11,2,43,p,2.5071579159994144,1,144
11,2,44,q,0.8995912909995241,1,64
11,2,45,q,0.7066351249995932,3,27
11,2,46,q,2.4180549580014485,3,47
11,2,47,q,1.8853697499980624,2,45
11,2,48,q,1.2470904580004571,3,60
11,2,49,p,1.2171183749997,2,69
11,2,50,q,1.0650687499983178,3,17
11,2,51,p,1.708968625000125,1,30
11,2,52,p,1.5868529170002148,3,33
11,2,53,q,1.398667082998145,3,129
11,2,54,p,2.062790458003292,2,134
11,2,55,q,0.9697265419999894,2,53
11,2,56,q,1.2825289169995813,2,9
11,2,57,q,1.4063216670001566,3,79
11,2,58,q,2.369927165997069,1,43
11,2,59,q,0.859031166000932,2,113
11,2,60,p,2.922735832999024,3,44
11,3,1,p,1.1395482500010985,3,132
11,3,2,q,0.9349066670001775,1,100
11,3,3,p,0.7780810410004051,2,92
11,3,4,q,0.8189635829985491,3,7
11,3,5,q,0.8169907499977853,1,113
11,3,6,q,0.9791212080017432,3,87
11,3,7,q,0.9278176670013636,1,53
11,3,8,p,1.1323199159996875,3,78
11,3,9,p,0.9855858339979022,1,135
11,3,10,q,1.9884181669985992,1,138
11,3,11,p,1.4583764579983836,1,112
11,3,12,q,1.7539917920003063,2,91
11,3,13,p,1.320002000000386,2,30
11,3,14,p,1.9318190000012692,1,44
11,3,15,q,0.9634393749984156,3,140
11,3,16,p,1.585811459000979,1,143
11,3,17,q,1.3426911249989644,1,82
11,3,18,p,1.6695574580007817,3,144
11,3,19,q,0.6556612919994222,1,111
11,3,20,q,1.3188972499992817,2,74
11,3,21,p,0.9950280000011844,2,147
11,3,22,p,0.8114360830004443,2,146
11,3,23,q,1.1702766669986886,3,83
11,3,24,p,0.7540107909990184,1,139
11,3,25,p,0.7618087079972611,2,76
11,3,26,q,0.8714492079998308,1,97
11,3,27,q,0.817474833002052,1,95
11,3,28,q,1.0854868329988676,3,89
11,3,29,q,0.712035125001421,1,77
11,3,30,p,0.6787939589994494,3,145
11,3,31,p,1.097793124998134,3,98
11,3,32,p,0.6513547919967095,2,142
11,3,33,q,0.5779721250000875,3,1
11,3,34,q,0.731747958001506,2,64
11,3,35,q,1.0779598750013974,2,27
11,3,36,q,2.1248244580019673,2,60
11,3,37,p,2.119580208000116,2,43
11,3,38,p,0.9143115830011084,1,93
11,3,39,q,0.6772334169982059,3,81
11,3,40,p,1.2066610000001674,3,101
11,3,41,p,1.65445045800152,2,94
11,3,42,q,0.7292579999993904,3,50
11,3,43,p,1.2221702500028186,3,61
11,3,44,p,1.2058021250013553,2,33
11,3,45,q,0.8923048749966256,1,129
11,3,46,q,2.1098483329988085,3,80
11,3,47,p,2.9539851250010543,3,134
11,3,48,p,1.3981108749976556,1,141
11,3,49,q,0.7178184999975201,1,9
11,3,50,q,0.6511062080026022,2,79
11,3,51,p,0.7540681250029593,1,73
11,3,52,q,0.9708002079969448,2,75
11,3,53,p,0.8381645840017882,1,123
11,3,54,p,1.7265362920006735,1,84
11,3,55,p,3.1505632090011204,1,88
11,3,56,q,0.9281743330029713,2,17
11,3,57,q,0.658607708002819,1,90
11,3,58,q,3.189149666999583,2,136
11,3,59,q,1.0477360840013716,2,12
11,3,60,q,0.8665928749978775,1,110
12,1,1,p,5.68201229099941,1,102
12,1,2,q,1.911614207998355,2,151
12,1,3,p,1.4029334580009163,3,13
12,1,4,q,1.894268166000984,3,16
12,1,5,p,0.8697877909999079,3,110
12,1,6,p,1.0135767080009828,3,129
12,1,7,q,1.6924157499997818,2,62
12,1,8,q,1.4122492500009685,1,140
12,1,9,p,1.716974000000846,2,113
12,1,10,q,1.0336790420005857,3,109
12,1,11,p,1.5635792499997478,1,33
12,1,12,q,1.7817612920007375,3,28
12,1,13,p,0.779111040999851,2,37
12,1,14,p,1.09651975000088,2,105
12,1,15,p,0.8007950840001286,2,22
12,1,16,q,4.064127917001315,1,83
12,1,17,p,1.2817065839990391,2,17
12,1,18,q,1.2750419999993028,1,119
12,1,19,q,1.8061093340002117,3,106
12,1,20,q,1.4962702920001902,3,115
12,1,21,p,1.7733849579999514,3,141
12,1,22,p,1.5177607919995353,3,104
12,1,23,p,1.7371340839999905,2,75
12,1,24,p,2.0134772090004844,1,131
12,1,25,p,2.2406072079993464,1,10
12,1,26,p,2.618812958999115,2,90
12,1,27,p,1.1734195419994649,3,114
12,1,28,p,1.1855765410000458,3,27
12,1,29,p,2.5042577919994073,3,111
12,1,30,p,1.1129598329989676,2,4
12,1,31,p,2.453835416999937,3,39
12,1,32,p,1.007565916999738,2,14
12,1,33,p,3.7423217499999737,3,23
12,1,34,p,1.063960666000639,3,98
12,1,35,q,2.563112292000369,3,123
12,1,36,p,6.2848900410008355,2,89
12,1,37,p,1.5216571669989207,2,108
12,1,38,q,2.496376334000161,2,87
12,1,39,q,1.081124792000992,1,78
12,1,40,p,1.117919999998776,2,32
12,1,41,p,1.0932864169990353,3,20
12,1,42,p,2.2258146660005877,2,94
12,1,43,p,2.6110473339995224,2,134
12,1,44,q,1.4611847920004948,1,2
12,1,45,q,1.1041487919992503,1,107
12,1,46,p,1.3881743339989043,2,12
12,1,47,q,1.5870533750003233,2,25
12,1,48,p,6.9694689589996415,1,29
12,1,49,p,1.8303877500002272,2,43
12,1,50,p,0.8510943340006634,1,18
12,1,51,p,6.733134958998562,2,30
12,1,52,p,2.429590165998889,2,21
12,1,53,p,0.8847966249995807,2,19
12,1,54,p,2.0139741670009244,2,36
12,1,55,p,0.9197395840001265,3,112
12,1,56,p,3.490508208000392,3,7
12,1,57,p,1.5430878339993797,2,1
12,1,58,p,1.3656293750009354,2,9
12,1,59,q,1.74053370799993,3,26
12,1,60,p,1.3201429999990069,3,11
12,2,1,p,1.6960161669994704,2,116
12,2,2,q,1.9629110839996429,2,23
12,2,3,p,2.904308791999938,3,10
12,2,4,p,3.396388000001025,1,43
12,2,5,q,2.323025499999858,2,61
12,2,6,q,1.6985953749972396,2,78
12,2,7,p,0.8176078750002489,3,126
12,2,8,p,1.423048208002001,2,42
12,2,9,q,1.7823523330007447,3,94
12,2,10,p,1.7001856250026322,2,128
12,2,11,p,1.3539082079987566,1,59
12,2,12,p,1.1217215830001803,2,68
12,2,13,p,0.9504754160006996,1,134
12,2,14,p,0.866305208997801,3,151
12,2,15,p,1.118109540999285,1,89
12,2,16,q,1.966012916996988,2,2
12,2,17,p,1.3109514169991598,1,62
12,2,18,q,1.415058083999611,1,141
12,2,19,p,1.0812402910014498,1,41
12,2,20,p,1.3180091670001275,2,57
12,2,21,p,1.0180523340022771,3,140
12,2,22,p,1.0704275000025518,3,87
12,2,23,p,1.441433167001378,1,39
12,2,24,p,3.38818716699825,2,60
12,2,25,q,2.613876874998823,1,75
12,2,26,q,3.166077292000409,1,123
12,2,27,p,0.8173144170032174,3,124
12,2,28,p,1.2301793749975332,2,106
12,2,29,p,1.500560124997719,1,98
12,2,30,p,1.0253990829987742,2,122
12,2,31,p,2.27735416699943,2,27
12,2,32,p,2.6721854580027866,1,56
12,2,33,p,1.0294578329994692,1,14
12,2,34,p,1.8159292499985895,3,66
12,2,35,p,2.3928710839973064,1,28
12,2,36,p,0.7867159169982187,3,131
12,2,37,p,0.9604691249987808,2,45
12,2,38,q,1.250956791001954,1,120
12,2,39,p,0.9030741670030692,3,102
12,2,40,p,1.713321792001807,3,37
12,2,41,p,0.792221542000334,1,49
12,2,42,p,0.9195084580023832,1,109
12,2,43,p,1.074740041000041,3,119
12,2,44,p,1.0470515830020304,1,130
12,2,45,p,1.517576750000444,1,90
12,2,46,p,0.7542012500016426,1,125
12,2,47,p,0.9277474170012284,3,53
12,2,48,q,3.647132707999845,3,83
12,2,49,p,1.085657166997407,2,118
12,2,50,p,2.1007346660007897,1,52
12,2,51,p,0.9887614580002264,3,22
12,2,52,p,1.6414495419994637,3,50
12,2,53,p,1.0150917079990904,1,47
12,2,54,p,1.123852000000625,2,129
12,2,55,p,1.6617912500005332,3,38
12,2,56,p,1.5910465000015392,2,67
12,2,57,p,1.986862999998266,1,64
12,2,58,q,3.525344749999931,1,117
12,2,59,p,4.271938499998214,2,51
12,2,60,p,1.8707334999999148,3,44
12,3,1,p,0.9531876670007478,2,123
12,3,2,p,1.120790457996918,1,92
12,3,3,p,1.4841571659999315,1,93
12,3,4,p,1.0372954159975052,2,39
12,3,5,p,1.655942083998525,1,106
12,3,6,q,1.8842177499973332,2,98
12,3,7,q,3.4612101250022533,2,81
12,3,8,q,1.3652428749992396,3,2
12,3,9,q,2.648260082998604,2,10
12,3,10,q,1.1527594170001976,1,151
12,3,11,p,1.497761457998422,1,74
12,3,12,p,1.013928834003309,3,134
12,3,13,p,1.0176563750028436,3,84
12,3,14,p,1.9298855409979296,1,27
12,3,15,p,1.1266444160028186,2,139
12,3,16,p,1.9367695000000824,2,102
12,3,17,p,4.350684832999832,2,141
12,3,18,p,0.7367534170007275,2,88
12,3,19,p,1.0449416249975911,3,14
12,3,20,p,2.1384566249980708,1,91
12,3,21,q,3.305788500001654,3,89
12,3,22,p,1.3779621659996335,3,97
12,3,23,p,1.0982473750009376,3,43
12,3,24,q,1.936617291001312,3,75
12,3,25,p,1.377871624998079,2,144
12,3,26,p,1.5649015420021897,1,22
12,3,27,q,3.939712833001977,3,78
12,3,28,p,1.3566074590016797,2,131
12,3,29,q,3.4053126250000787,1,23
12,3,30,p,1.2406282910014852,2,73
12,3,31,p,1.7138453329971526,3,135
12,3,32,q,1.6107371250000142,1,37
12,3,33,p,2.5934427920001326,2,119
12,3,34,q,1.376491749997513,2,28
12,3,35,p,2.1828652920012246,2,109
12,3,36,q,1.3189241250001942,3,62
12,3,37,p,1.969247916997119,1,70
12,3,38,p,2.1722698330013372,1,87
12,3,39,p,2.7524464579983032,1,129
12,3,40,q,2.0015524169975834,1,94
12,3,41,p,1.7275180830001773,3,82
12,3,42,p,1.0873235830003978,2,140
12,3,43,p,1.3908755410011509,2,138
12,3,44,p,2.665010208002059,1,142
12,3,45,p,3.1832175409981573,2,71
12,3,46,q,5.476899875000527,3,90
12,3,47,q,1.4391399170017394,2,83
12,3,48,p,2.1220777919988905,2,146
12,3,49,q,1.2887145419990702,2,69
12,3,50,p,0.9034592499992868,3,76
12,3,51,p,0.8996847920025175,3,136
12,3,52,p,1.2726829160019406,3,145
12,3,53,p,1.0579744589995244,1,79
12,3,54,p,2.0319663749978645,3,100
12,3,55,p,1.7325509160000363,1,143
12,3,56,p,2.2084470839981805,1,95
12,3,57,p,3.003882833996613,1,77
12,3,58,p,3.1575910409992503,1,132
12,3,59,p,4.090770791000978,1,80
12,3,60,p,4.363889790998655,1,72
13,1,1,q,0.5364237500016316,1,68
13,1,2,p,0.8423335000006773,2,11
13,1,3,q,0.576802958999906,1,141
13,1,4,p,0.5675029579997499,1,33
13,1,5,q,0.5822430420012097,1,23
13,1,6,q,0.4873097920008149,2,139
13,1,7,p,0.5648525409997092,2,1
13,1,8,q,0.6566695000001346,3,107
13,1,9,q,0.730851000000257,3,13
13,1,10,p,0.6079713749986695,3,20
13,1,11,p,0.844675708000068,2,21
13,1,12,q,0.6387207920015499,1,115
13,1,13,p,0.8786430410000321,2,2
13,1,14,q,0.7604677090002951,1,32
13,1,15,q,0.7029799169995385,3,126
13,1,16,q,0.6943649999993795,2,78
13,1,17,p,0.6252087499997288,2,22
13,1,18,p,0.71504166700106,1,27
13,1,19,p,0.7136895830008143,2,113
13,1,20,q,0.6897696249998262,1,25
13,1,21,q,0.8094784580007399,2,108
13,1,22,q,0.8810921250005777,1,10
13,1,23,q,0.7369382079996285,1,18
13,1,24,p,0.6378580420005164,3,14
13,1,25,q,0.6255287080002745,2,52
13,1,26,p,0.8238886660001299,3,111
13,1,27,p,0.7023265839998203,3,7
13,1,28,q,0.7788562089990592,3,17
13,1,29,q,0.7193508750006004,2,62
13,1,30,p,0.7373035000000527,3,28
13,1,31,q,0.8179585830002907,3,73
13,1,32,p,0.8286578329989425,2,109
13,1,33,q,0.7632034170001134,3,19
13,1,34,p,0.793608582998786,2,12
13,1,35,p,0.7860887500009994,3,26
13,1,36,q,0.7684375410008215,1,97
13,1,37,p,0.6989939999984927,1,105
13,1,38,p,0.879245041998729,2,117
13,1,39,q,0.5683146669998678,2,95
13,1,40,q,0.5958339580010943,3,30
13,1,41,p,0.7005929160004598,2,104
13,1,42,q,0.6369405410005129,1,114
13,1,43,q,0.6325792499992531,3,64
13,1,44,p,0.7622759169989877,2,36
13,1,45,p,0.7899684160001925,3,37
13,1,46,q,1.095700834001036,2,143
13,1,47,q,0.7219254169995111,1,43
13,1,48,p,0.7938413329993637,3,110
13,1,49,q,0.562171749999834,1,9
13,1,50,p,0.7856604590015195,3,112
13,1,51,q,0.7452143749997049,2,130
13,1,52,p,0.7681947090004542,3,16
13,1,53,q,0.6092901250012801,1,57
13,1,54,q,0.6742205419996026,2,153
13,1,55,q,0.5416170409989718,3,51
13,1,56,q,0.6338745829998516,1,94
13,1,57,q,0.5861793340009172,1,29
13,1,58,q,0.5868737079999846,3,4
13,1,59,q,0.5624735410001449,2,116
13,1,60,q,0.5481887919995643,1,106
13,2,1,q,0.6626302919994487,2,23
13,2,2,q,0.6141778749988589,1,19
13,2,3,q,0.6336392920002254,3,123
13,2,4,q,0.6179433750003227,2,41
13,2,5,q,0.6845096659999399,1,126
13,2,6,q,0.5567450830003509,3,56
13,2,7,p,0.6569009169998026,3,130
13,2,8,q,0.6512425000000803,2,66
13,2,9,p,0.60818454100081,2,44
13,2,10,p,0.7900609169992094,3,124
13,2,11,q,0.6638511250002921,1,69
13,2,12,q,0.6270511250004347,3,25
13,2,13,q,0.5434504590011784,1,62
13,2,14,q,0.5654167079992476,3,18
13,2,15,q,0.5801917919998232,1,30
13,2,16,p,0.7058401670001331,1,61
13,2,17,p,0.5975270420003653,1,59
13,2,18,p,0.8036100830013311,2,128
13,2,19,q,0.5351453330004006,3,68
13,2,20,q,0.586904499999946,3,94
13,2,21,q,0.6947877090005932,3,78
13,2,22,p,0.8138941249999334,3,118
13,2,23,q,0.602556416999505,1,52
13,2,24,p,0.6310630000007222,1,72
13,2,25,p,0.5736607910002931,3,122
13,2,26,p,0.6281352919995697,2,39
13,2,27,p,0.6881517080000776,1,70
13,2,28,p,0.5487956670003769,2,71
13,2,29,q,0.6107404160011356,2,10
13,2,30,p,0.6822599999995873,1,51
13,2,31,q,0.7246641250003449,2,115
13,2,32,q,0.5876920419996168,3,114
13,2,33,p,0.5625736250003683,1,50
13,2,34,q,0.877944292000393,1,153
13,2,35,p,0.5717983750000712,2,45
13,2,36,q,0.4997576249988924,3,29
13,2,37,p,0.4763066249997792,2,119
13,2,38,p,0.5737287499996455,2,97
13,2,39,p,0.7108843749992957,2,129
13,2,40,q,0.6522692500002449,3,120
13,2,41,p,0.6166965829997935,3,38
13,2,42,p,0.5654475419996743,1,49
13,2,43,p,0.6816921249992447,3,60
13,2,44,q,0.5530285419990832,1,4
13,2,45,p,0.6773018329986371,1,47
13,2,46,p,0.5591107920008653,1,42
13,2,47,q,0.4965054999993299,1,95
13,2,48,p,0.5483667500011506,2,131
13,2,49,q,0.5258863330000167,1,64
13,2,50,p,0.46662100000139617,2,67
13,2,51,p,0.6561246250003023,3,53
13,2,52,p,0.6185946669993427,1,125
13,2,53,p,0.4967565420010942,3,116
13,2,54,q,0.6001362499991956,3,143
13,2,55,p,0.5682125000002998,2,73
13,2,56,q,0.8151239159997203,3,106
13,2,57,p,0.5545455829997081,2,43
13,2,58,q,0.8650111659990216,1,139
13,2,59,q,0.612709792001624,3,141
13,2,60,q,0.5469949590005854,3,57
13,3,1,q,0.613568208000288,2,64
13,3,2,q,0.49272004200065567,3,88
13,3,3,q,0.5043077089994767,2,30
13,3,4,q,0.5893979160009621,1,90
13,3,5,p,0.7324302500001068,3,79
13,3,6,p,0.7488788340015162,2,51
13,3,7,q,1.0337847920000058,3,144
13,3,8,q,0.5365372920005029,3,139
13,3,9,p,0.5357741249990795,1,135
13,3,10,q,0.5860623329990631,3,10
13,3,11,p,0.6834034160001465,1,146
13,3,12,q,0.5581340419994376,1,143
13,3,13,q,0.562133208000887,3,23
13,3,14,p,0.5710721660016134,2,94
13,3,15,q,0.6773865840004873,3,74
13,3,16,q,0.5609839999997348,2,141
13,3,17,q,0.4899965829990834,2,77
13,3,18,p,0.693762708999202,3,132
13,3,19,p,0.6533640409998043,3,84
13,3,20,p,0.5797837499994785,3,140
13,3,21,p,0.4970139590004692,1,82
13,3,22,p,1.001476499999626,2,87
13,3,23,q,0.5400312500005384,2,68
13,3,24,p,0.6319370410001284,1,138
13,3,25,q,0.5255135829993378,2,25
13,3,26,p,0.4987929159997293,2,98
13,3,27,q,0.5013036250002187,1,83
13,3,28,p,0.41996875000040745,3,81
13,3,29,p,0.5777821669998957,3,76
13,3,30,p,0.4824224579988368,3,75
13,3,31,p,0.5837663750007778,1,91
13,3,32,p,0.4781939999993483,3,100
13,3,33,q,0.5672819589999563,1,116
13,3,34,q,0.5347559999991063,2,57
13,3,35,p,0.5367385000008653,3,93
13,3,36,p,0.5563293329996668,1,101
13,3,37,q,0.6169180830002006,3,115
13,3,38,p,0.5646386669995991,2,29
13,3,39,p,0.5744889590005187,3,153
13,3,40,q,0.520046084000569,3,62
13,3,41,p,0.5117605409996031,3,52
13,3,42,p,0.6135482089994184,1,145
13,3,43,p,0.5491653750013938,3,97
13,3,44,q,0.6541925000001356,1,80
13,3,45,p,0.5121315840005991,1,89
13,3,46,q,0.5088831660013966,2,4
13,3,47,p,0.5529092920005496,1,92
13,3,48,q,0.49297520900108793,3,43
13,3,49,q,0.6636360829998011,2,114
13,3,50,p,0.5452767500009941,3,142
13,3,51,p,0.6279119579994585,2,134
13,3,52,q,0.6299217499999941,2,106
13,3,53,p,0.4980815420003637,2,136
13,3,54,p,0.4774766249993263,2,18
13,3,55,q,0.6517327499987005,2,19
13,3,56,q,0.5691173750001326,1,78
13,3,57,p,0.5555980839999393,2,126
13,3,58,q,1.0306317079994187,1,73
13,3,59,q,0.534555124999315,1,130
13,3,60,q,0.5821829579999758,3,95
14,1,1,q,0.7806011669999862,2,132
14,1,2,q,0.9183382080009324,3,4
14,1,3,p,1.245309666999674,1,105
14,1,4,p,0.8419479580006737,2,22
14,1,5,p,0.8641826670027513,3,13
14,1,6,p,0.6592680419998942,3,112
14,1,7,q,1.3750523749986314,1,10
14,1,8,p,1.3659451249986887,3,1
14,1,9,p,0.7210725830009324,3,104
14,1,10,p,0.6984125839990156,1,27
14,1,11,p,0.7562964580029075,3,7
14,1,12,p,1.0189286669992723,1,17
14,1,13,q,1.0549249590003456,2,89
14,1,14,p,0.7450740419990325,3,32
14,1,15,q,1.3460950830012737,2,135
14,1,16,q,0.7965698750012962,1,70
14,1,17,p,0.6442497089992685,3,30
14,1,18,p,0.6428741659983643,3,16
14,1,19,q,0.9434226669982309,1,101
14,1,20,p,0.8375000830019417,1,107
14,1,21,p,0.6228115830017487,1,33
14,1,22,p,0.7276978330010024,3,26
14,1,23,q,0.703360415998759,1,45
14,1,24,q,1.050738083999022,3,14
14,1,25,q,0.7349050420016283,2,91
14,1,26,p,1.0752119589997164,2,147
14,1,27,p,0.9819118749983318,2,21
14,1,28,p,0.862838916000328,2,73
14,1,29,p,0.8054248749976978,3,18
14,1,30,p,1.2241395410019322,3,152
14,1,31,p,1.211967666997225,3,66
14,1,32,p,0.8882704170027864,1,25
14,1,33,q,0.8659002919994236,2,113
14,1,34,q,1.4407113330016728,1,2
14,1,35,p,0.8387658329993428,1,9
14,1,36,p,0.767741167001077,2,12
14,1,37,q,1.1224288749981497,1,76
14,1,38,p,1.300999208000576,2,67
14,1,39,p,0.9136442089984484,1,19
14,1,40,q,0.936858166998718,3,122
14,1,41,p,0.8612199169983796,2,114
14,1,42,p,1.812173166999855,2,43
14,1,43,p,0.7167028330004541,2,111
14,1,44,p,0.8580520840005192,3,20
14,1,45,p,0.8802345000003697,3,38
14,1,46,p,0.8829089169994404,2,106
14,1,47,p,0.9178765420001582,2,115
14,1,48,p,1.009377083999425,1,82
14,1,49,p,0.7733864590009034,1,116
14,1,50,q,0.7019519169989508,1,87
14,1,51,p,0.7008780409996689,2,109
14,1,52,p,1.177863167002215,1,138
14,1,53,p,0.9483190840001045,3,110
14,1,54,p,0.905533707998984,3,11
14,1,55,q,0.6757309590029763,1,143
14,1,56,p,1.0519481660012389,1,108
14,1,57,p,0.9463521670004412,2,23
14,1,58,p,1.9483818330008944,3,29
14,1,59,p,0.8681383750008536,1,28
14,1,60,q,0.9257057090035232,3,95
14,2,1,q,1.1605443749976985,3,132
14,2,2,p,1.1075050420004118,3,50
14,2,3,p,0.7627982920021168,2,42
14,2,4,p,0.8032267919988954,3,51
14,2,5,p,0.6310484159985208,2,41
14,2,6,p,1.204190000000381,1,36
14,2,7,p,0.7547638329997426,1,128
14,2,8,p,1.9516583750009888,3,68
14,2,9,q,2.290921291001723,1,67
14,2,10,q,1.120346542000334,2,82
14,2,11,q,0.6659791660022165,3,143
14,2,12,q,1.8558113330000197,3,45
14,2,13,p,0.7981691659988428,1,124
14,2,14,p,1.035472416999255,1,126
14,2,15,p,1.266660332999891,2,66
14,2,16,q,0.979902208000567,3,101
14,2,17,p,0.9260217910014036,3,119
14,2,18,p,0.7835208750002494,2,47
14,2,19,p,1.1341600839987225,3,115
14,2,20,p,0.6679358330002287,3,116
14,2,21,p,0.985774250002578,1,4
14,2,22,p,3.0364625830006844,2,70
14,2,23,p,1.4277805419988,1,26
14,2,24,p,1.4579339580013766,2,118
14,2,25,q,0.8127772910011117,2,152
14,2,26,q,1.728574083997955,3,138
14,2,27,q,0.8089025420013058,1,91
14,2,28,p,1.0685171670011189,2,107
14,2,29,p,0.9200819159996172,2,64
14,2,30,q,1.1587554159996216,2,14
14,2,31,p,0.8296677500002261,1,37
14,2,32,p,0.9098851669987198,2,52
14,2,33,p,0.5624856670001463,1,38
14,2,34,p,0.9699679170007584,3,44
14,2,35,q,1.2039869580003142,2,87
14,2,36,p,0.7904569580023235,2,30
14,2,37,p,1.0065996249977616,2,117
14,2,38,p,0.7211319999987609,1,129
14,2,39,q,0.8660598749993369,3,147
14,2,40,p,0.7518928749996121,3,39
14,2,41,p,0.8554127919996972,3,73
14,2,42,p,1.7717868329964404,2,95
14,2,43,p,1.234984833998169,3,56
14,2,44,p,1.0189970419996826,3,2
14,2,45,p,1.1842044590011938,2,76
14,2,46,p,1.1126724999994622,2,123
14,2,47,p,1.2591437919982127,2,53
14,2,48,p,0.9495330839999953,3,62
14,2,49,q,0.9291187499984516,1,43
14,2,50,p,1.1174945420025324,3,120
14,2,51,p,0.7098497920014779,1,59
14,2,52,q,0.7906242919998476,3,89
14,2,53,p,1.2860744169993268,3,125
14,2,54,p,0.8536265840011765,2,57
14,2,55,p,0.8999689999982365,2,29
14,2,56,q,0.9561767920022248,1,135
14,2,57,p,0.877613291999296,3,60
14,2,58,q,1.5654235830006655,1,122
14,2,59,p,0.6873917499979143,3,61
14,2,60,p,0.7068796249986917,1,49
14,3,1,q,4.390399583000544,1,132
14,3,2,q,1.1539009170010104,1,79
14,3,3,p,0.9464126669990948,3,67
14,3,4,q,1.0208232499971928,2,122
14,3,5,p,0.7311187080013042,2,78
14,3,6,p,0.6696837500021502,3,92
14,3,7,q,0.7484586659993511,3,87
14,3,8,p,0.5891190420006751,2,142
14,3,9,p,0.7999912909981504,2,141
14,3,10,p,0.8090627910023613,3,134
14,3,11,p,0.6523500420007622,2,26
14,3,12,p,0.6971407910023117,3,69
14,3,13,p,0.5486534170013329,1,93
14,3,14,q,0.710952040997654,3,135
14,3,15,p,0.8303182920026302,2,88
14,3,16,p,1.4212988750005024,3,84
14,3,17,p,0.8537357499990321,3,97
14,3,18,p,0.6691273750002438,1,77
14,3,19,p,0.573571417000494,3,72
14,3,20,p,0.8226747500011697,3,144
14,3,21,p,0.8604037090008205,3,74
14,3,22,p,0.8182630410010461,3,82
14,3,23,q,1.121051707999868,1,89
14,3,24,p,0.9169727090011291,1,73
14,3,25,p,0.972096582998347,1,152
14,3,26,p,1.3851754999996049,2,2
14,3,27,p,1.2295714579995547,3,81
14,3,28,p,1.333213791000162,1,100
14,3,29,p,0.7747472080009175,1,115
14,3,30,p,1.239937624999584,2,75
14,3,31,p,0.7938968749986088,2,116
14,3,32,p,1.789774832999683,1,14
14,3,33,p,2.0987421250029,1,66
14,3,34,p,1.0902409999980591,3,71
14,3,35,q,1.9406712080017312,1,95
14,3,36,p,0.7157092080014991,3,131
14,3,37,q,1.0711587500009043,2,101
14,3,38,p,0.8073175829995307,2,140
14,3,39,p,0.6130682500006515,3,83
14,3,40,p,1.7272876250026457,1,136
14,3,41,p,0.5560327499988489,3,139
14,3,42,p,3.627887667000323,3,107
14,3,43,p,1.1296122499988996,1,94
14,3,44,p,0.7743155409989413,1,30
14,3,45,q,1.5988769169998704,3,70
14,3,46,p,0.6806480420018488,2,98
14,3,47,p,2.163463374999992,3,90
14,3,48,p,1.277787040999101,2,138
14,3,49,p,1.2285846670019964,1,29
14,3,50,p,4.576460707998194,3,76
14,3,51,p,0.7348877079966769,2,145
14,3,52,q,1.2595421669975622,2,45
14,3,53,p,0.7444258329996956,2,130
14,3,54,p,1.1265939160002745,1,80
14,3,55,q,1.4251268340012757,2,4
14,3,56,q,2.3650642499997048,3,43
14,3,57,q,1.0318152090003423,3,91
14,3,58,q,0.9200907910017122,2,143
14,3,59,q,0.967581208999036,1,147
14,3,60,p,0.6698279999982333,2,38
15,1,1,p,2.7898337920014455,1,16
15,1,2,q,2.7016686659990228,3,10
15,1,3,q,2.630825290998473,2,77
15,1,4,p,3.372927417000028,1,1
15,1,5,q,0.9097784999976284,1,56
15,1,6,q,0.9534986250000655,1,151
15,1,7,p,1.3507164579968958,2,126
15,1,8,q,0.8005760419982835,2,89
15,1,9,p,0.8691177920009068,1,109
15,1,10,p,1.1465669999997772,1,7
15,1,11,q,1.1364138749995618,1,132
15,1,12,p,2.183354708002298,2,37
15,1,13,p,2.1690885000025446,3,114
15,1,14,q,0.9153747920026944,1,45
15,1,15,q,0.6890891670009296,1,115
15,1,16,q,1.2298117089994776,3,74
15,1,17,q,1.564019208002719,3,108
15,1,18,q,1.1642022499981977,1,27
15,1,19,p,1.097641542000929,1,18
15,1,20,q,3.2309425419989566,1,83
15,1,21,q,1.5995033330000297,2,120
15,1,22,p,1.1377869169991754,3,13
15,1,23,p,2.066372124998452,2,26
15,1,24,q,5.464244708000479,3,21
15,1,25,p,3.1212495409999974,1,97
15,1,26,p,2.277994125000987,1,110
15,1,27,p,2.3892368330016325,3,117
15,1,28,p,2.242578749999666,2,12
15,1,29,q,0.7391133749988512,2,49
15,1,30,q,1.8580670000010289,1,19
15,1,31,q,0.7833060000011756,2,68
15,1,32,q,4.735763541997585,1,111
15,1,33,p,1.0280400830015424,1,30
15,1,34,p,6.17016387500189,2,112
15,1,35,q,0.842090250000183,2,104
15,1,36,p,0.7981683329999214,3,116
15,1,37,p,1.8398842499991588,1,4
15,1,38,q,1.5946758330028388,2,106
15,1,39,q,1.4750444169985713,2,64
15,1,40,q,1.4795310000008612,3,29
15,1,41,p,3.744080625001516,3,2
15,1,42,p,1.2780107910002698,1,25
15,1,43,p,1.1590199159982149,3,33
15,1,44,p,4.39673324999967,1,122
15,1,45,p,2.733533125003305,2,113
15,1,46,p,2.1686890829987533,2,91
15,1,47,q,3.962991541997326,1,22
15,1,48,p,1.052025583001523,3,14
15,1,49,q,0.8152740000004997,3,59
15,1,50,q,2.3037136670027394,2,32
15,1,51,p,1.0069583340009558,3,105
15,1,52,q,5.267656417003309,3,9
15,1,53,p,1.0721809579990804,3,23
15,1,54,p,1.4085765829986483,2,107
15,1,55,q,1.3171940419997554,3,118
15,1,56,p,0.9339852500015696,3,11
15,1,57,p,1.218231957998796,1,36
15,1,58,p,1.8629727080005976,1,17
15,1,59,p,1.6274437499996566,3,20
15,1,60,p,2.79999887500162,3,28
15,2,1,q,1.0034752499996102,3,91
15,2,2,q,1.93944533299873,2,30
15,2,3,q,0.9912687920004828,2,56
15,2,4,p,0.86164504199769,2,60
15,2,5,p,1.8956701250026529,1,38
15,2,6,p,3.1832275839988142,3,45
15,2,7,p,2.5701592080004048,2,83
15,2,8,p,1.0104457090019423,3,129
15,2,9,p,2.6982744999986608,1,62
15,2,10,p,3.254323417000706,3,67
15,2,11,q,0.841251416997693,1,37
15,2,12,q,3.1527470420005557,1,108
15,2,13,q,0.6365168330012239,3,104
15,2,14,q,1.938267249999626,2,33
15,2,15,p,3.855124624999007,1,134
15,2,16,q,0.7399158749976777,3,68
15,2,17,q,1.1711476250020496,3,115
15,2,18,p,2.2452207500027725,2,71
15,2,19,p,1.7649349580024136,2,97
15,2,20,q,2.972178083997278,1,57
15,2,21,p,1.3938445839994529,2,50
15,2,22,q,0.719785374996718,1,120
15,2,23,q,0.9412512080016312,1,29
15,2,24,p,0.945254666999972,3,125
15,2,25,q,1.0128014170004462,2,122
15,2,26,q,0.9059849580007722,1,44
15,2,27,q,1.5004693339978985,1,70
15,2,28,q,0.8675617500011867,3,89
15,2,29,p,0.871336500000325,3,128
15,2,30,p,1.5489487079976243,1,131
15,2,31,p,1.1992298750010375,2,43
15,2,32,p,1.6537241250007355,1,41
15,2,33,q,2.1536566249997122,2,119
15,2,34,p,1.699700124998344,1,74
15,2,35,q,1.8762300000016696,1,124
15,2,36,p,1.677029541999218,1,135
15,2,37,q,2.164919333998114,1,52
15,2,38,q,0.8727979169998434,1,112
15,2,39,p,1.1386274169999524,3,126
15,2,40,p,2.2095377080004255,1,114
15,2,41,p,2.796544332999474,3,123
15,2,42,q,3.2789101250018575,1,51
15,2,43,q,0.9549830830001156,3,151
15,2,44,q,1.252190833001805,1,61
15,2,45,q,0.750136124999699,3,77
15,2,46,q,2.110827500000596,2,69
15,2,47,q,4.770737000002555,2,2
15,2,48,p,2.332790541997383,3,64
15,2,49,q,0.6982912919993396,3,49
15,2,50,q,1.3373064579973288,1,47
15,2,51,q,0.6846130830017501,2,4
15,2,52,q,1.8902509580002516,3,132
15,2,53,q,2.598405083997932,3,66
15,2,54,q,0.9768652499988092,1,53
15,2,55,p,0.700987415999407,3,42
15,2,56,p,2.586109750001924,2,39
15,2,57,q,8.840056000000914,1,59
15,2,58,p,1.2277775420006949,2,130
15,2,59,q,1.980460040998878,2,27
15,2,60,q,1.8861502500003553,3,19
15,3,1,q,0.7787414170015836,3,27
15,3,2,p,3.380682999999408,1,101
15,3,3,q,1.555492209001386,3,97
15,3,4,p,3.4360696250005276,3,56
15,3,5,q,1.145998291001888,1,76
15,3,6,p,5.9274721250003495,1,64
15,3,7,q,0.7929012089989556,1,81
15,3,8,p,1.474228041999595,3,90
15,3,9,q,0.9015383330006445,2,132
15,3,10,q,2.359067249999498,1,77
15,3,11,q,2.7083887080007116,2,19
15,3,12,q,3.4403779579988623,1,93
15,3,13,q,2.061202125001728,2,78
15,3,14,p,1.8584698750019015,1,87
15,3,15,q,2.082157875000121,2,59
15,3,16,p,0.983608999998978,2,92
15,3,17,q,1.248307042002125,1,89
15,3,18,q,4.178918833000353,1,126
15,3,19,p,1.051821666998876,3,143
15,3,20,p,1.4892667920030362,2,98
15,3,21,p,1.4197207080032967,2,29
15,3,22,q,1.1865017500022077,3,122
15,3,23,p,7.881851499998447,1,91
15,3,24,p,4.023190291998617,3,138
15,3,25,q,1.1110425410006428,2,94
15,3,26,p,1.015806542000064,3,88
15,3,27,q,1.2279234589987027,2,115
15,3,28,p,1.7881247499972233,2,136
15,3,29,q,2.145872583001619,3,120
15,3,30,q,3.4258213749999413,3,146
15,3,31,p,2.5413268330012215,2,79
15,3,32,p,1.9170687919977352,1,142
15,3,33,p,6.983052209001471,2,108
15,3,34,p,7.273521416998847,2,95
15,3,35,p,0.9795634160000192,2,145
15,3,36,q,2.4978112089993374,3,30
15,3,37,p,1.2508950409974204,1,139
15,3,38,p,1.7348475830003736,3,100
15,3,39,p,1.7779018330002143,3,80
15,3,40,p,3.711933291000605,2,82
15,3,41,p,3.904455916999723,2,72
15,3,42,q,0.7563370829993801,3,112
15,3,43,q,1.1336880830021985,1,2
15,3,44,p,0.8175939169996127,2,114
15,3,45,q,0.6147012090004864,1,68
15,3,46,p,1.5838050419988576,1,84
15,3,47,p,1.5503382499991858,1,75
15,3,48,p,2.420216749997053,2,141
15,3,49,p,1.9056332079999263,2,73
15,3,50,q,1.0135344580012315,2,151
15,3,51,p,1.007016040999588,2,140
15,3,52,q,3.4674176250009623,2,45
15,3,53,q,1.195222416001343,3,83
15,3,54,p,2.5510613750011544,1,144
15,3,55,q,0.8917791659987415,3,4
15,3,56,q,3.015437583002494,1,33
15,3,57,p,0.9399977499997476,2,74
15,3,58,q,0.7137884999974631,1,49
15,3,59,q,2.5607546669998555,3,37
15,3,60,q,0.7013895000018238,1,104
16,1,1,p,5.481094959002803,1,9
16,1,2,p,2.6094129999983124,1,145
16,1,3,p,3.3355340829984925,2,95
16,1,4,p,0.9147181250009452,2,104
16,1,5,q,1.7607449169991014,1,25
16,1,6,q,0.8662092910017236,1,80
16,1,7,p,3.305850166001619,2,16
16,1,8,p,2.1046217500006605,2,7
16,1,9,p,1.2593273339989537,3,105
16,1,10,p,0.8317253749992233,3,23
16,1,11,p,1.2938005830001202,2,107
16,1,12,q,1.558236417000444,3,20
16,1,13,p,0.8472905839989835,3,33
16,1,14,q,0.9093473339999036,1,50
16,1,15,q,5.30714912500116,2,13
16,1,16,q,1.1327523329964606,1,111
16,1,17,p,0.8228865420023794,2,112
16,1,18,p,2.3867802919994574,3,30
16,1,19,p,2.21156583300035,2,108
16,1,20,p,1.1181000409997068,1,27
16,1,21,p,1.5925488749999204,2,1
16,1,22,q,2.6454186250011844,1,151
16,1,23,p,0.9994270829993184,2,22
16,1,24,p,0.876091334001103,3,106
16,1,25,q,0.9445290830008162,2,72
16,1,26,p,0.9384961659998226,1,26
16,1,27,p,1.155533791999915,1,21
16,1,28,p,2.4292409590016177,1,113
16,1,29,p,1.3192767090004054,2,109
16,1,30,p,3.405669250001665,1,28
16,1,31,q,0.839962750000268,1,91
16,1,32,q,0.6925127920003433,1,77
16,1,33,q,0.7506297500003711,3,76
16,1,34,p,3.634094125001866,2,98
16,1,35,p,1.8915846250019968,2,14
16,1,36,q,1.8802230840010452,3,2
16,1,37,p,3.761910916000488,3,4
16,1,38,q,2.2494238750005024,1,52
16,1,39,p,1.0811047499992128,3,12
16,1,40,p,3.843529249999847,3,19
16,1,41,p,0.9578000420005992,3,110
16,1,42,p,0.8609939579982893,2,18
16,1,43,p,0.9205035840022902,2,114
16,1,44,q,0.9766642499998852,2,126
16,1,45,q,1.2254459579999093,1,143
16,1,46,p,0.9269937909994042,1,10
16,1,47,q,0.9021090419992106,1,116
16,1,48,p,1.7757930840016345,1,29
16,1,49,p,1.4106878339989637,3,71
16,1,50,p,6.069950958000845,2,17
16,1,51,p,2.395691166002507,1,69
16,1,52,p,1.729246750001039,1,32
16,1,53,p,1.416885042002832,2,11
16,1,54,q,1.317185416999564,1,140
16,1,55,q,3.529956125003082,3,120
16,1,56,p,1.040847832999134,3,152
16,1,57,q,0.8254248749981343,1,89
16,1,58,p,3.254303959001845,1,122
16,1,59,q,0.942198124997958,1,49
16,1,60,p,1.6253954169987992,1,43
16,2,1,q,1.4157867079993594,3,52
16,2,2,p,1.2609163750021253,1,41
16,2,3,p,1.726314084000478,3,115
16,2,4,p,2.1931632500018168,2,62
16,2,5,p,1.1110875420017692,3,39
16,2,6,q,0.8918029999986175,2,143
16,2,7,q,0.8708431669983838,3,49
16,2,8,p,1.026654208999389,1,119
16,2,9,p,0.8972179169977608,2,21
16,2,10,p,0.9299929169974348,2,51
16,2,11,p,1.0979975839982217,3,38
16,2,12,q,3.0189874159987085,3,145
16,2,13,q,1.345755124999414,1,71
16,2,14,q,0.9133844999996654,1,126
16,2,15,p,1.4805260419998376,3,57
16,2,16,p,1.5696900410002854,1,98
16,2,17,q,2.2838105840019125,1,13
16,2,18,p,1.9043312499998135,3,123
16,2,19,p,2.689062790999742,3,44
16,2,20,q,2.2681664580013603,2,80
16,2,21,q,1.29397033299756,2,116
16,2,22,p,1.0883013749989914,2,89
16,2,23,p,1.2148449160013115,1,61
16,2,24,q,1.0592392079997808,2,152
16,2,25,q,2.1120733749994542,3,60
16,2,26,q,0.8284349590030615,3,77
16,2,27,q,1.5794986670007347,1,76
16,2,28,p,1.9428269999989425,3,128
16,2,29,p,0.973836790999485,2,37
16,2,30,p,1.7603664999987814,2,125
16,2,31,p,1.3887628330012376,3,130
16,2,32,q,0.7171644589980133,3,91
16,2,33,p,0.9082479999997304,3,124
16,2,34,p,1.4229669159976766,3,151
16,2,35,p,1.2279188339998657,1,66
16,2,36,p,0.797907625001244,1,72
16,2,37,p,1.484161958000186,1,47
16,2,38,q,2.61185258399928,2,111
16,2,39,p,0.9005684580006346,3,17
16,2,40,p,1.0221769999989192,3,129
16,2,41,p,4.025330207998195,3,67
16,2,42,p,4.667996874999517,2,50
16,2,43,q,1.0554594169989286,1,120
16,2,44,p,0.8562670410028659,3,32
16,2,45,p,2.609605958998145,3,7
16,2,46,p,5.231198292000045,3,56
16,2,47,q,1.511310957997921,2,140
16,2,48,p,1.4204240840008424,3,53
16,2,49,q,2.8072592919997987,3,64
16,2,50,q,1.9819318330009992,1,95
16,2,51,q,1.7099598330023582,2,69
16,2,52,p,0.974286624998058,2,118
16,2,53,q,1.608800333000545,2,20
16,2,54,p,1.0660377919994062,2,117
16,2,55,p,1.1779421659994114,3,45
16,2,56,p,0.984200666000106,2,43
16,2,57,p,0.8998632910006563,1,42
16,2,58,q,2.54479829200136,3,122
16,2,59,p,0.9424254170007772,3,36
16,2,60,p,0.8772487079986604,3,59
16,3,1,p,1.1936110409988032,3,72
16,3,2,p,1.881178166000609,1,134
16,3,3,q,0.7959644590009702,2,71
16,3,4,p,0.9775248330006434,1,142
16,3,5,q,0.8397947500016016,3,116
16,3,6,p,0.805072334002034,3,88
16,3,7,p,2.819355291998363,3,131
16,3,8,p,2.178765500000736,2,151
16,3,9,q,1.227471542002604,3,143
16,3,10,p,0.8923999580001691,3,89
16,3,11,p,1.1206883750019188,1,81
16,3,12,p,1.2197406250015774,2,120
16,3,13,p,1.0115598340016732,2,92
16,3,14,p,1.2335645829989517,1,144
16,3,15,q,1.546427707999101,2,145
16,3,16,p,0.831469750002725,1,94
16,3,17,q,0.9792387499983306,2,49
16,3,18,p,2.4958953330024087,2,138
16,3,19,p,3.4002511670005333,2,78
16,3,20,p,0.9528102920012316,3,84
16,3,21,q,3.8372067920026898,3,69
16,3,22,q,1.2224732499998936,3,13
16,3,23,p,0.8268549169988546,2,70
16,3,24,p,1.6128568329986592,2,68
16,3,25,q,1.56491641699904,3,95
16,3,26,p,0.7778634579990467,3,83
16,3,27,q,2.097805375000462,2,101
16,3,28,p,1.464854207999451,2,122
16,3,29,p,1.606983707999461,1,97
16,3,30,p,2.6979365830011375,1,136
16,3,31,q,2.2499475000004168,2,93
16,3,32,p,1.0159181659983003,2,132
16,3,33,p,3.0273138340016885,2,100
16,3,34,q,1.993480750003073,1,152
16,3,35,q,2.422151582999504,1,75
16,3,36,p,0.8919352910015732,1,141
16,3,37,p,1.4868865419994108,2,139
16,3,38,q,2.2256543329967826,1,87
16,3,39,p,5.827978792000067,3,82
16,3,40,q,1.8195699999996575,3,80
16,3,41,q,0.9675347080010396,2,77
16,3,42,p,1.2092248749977443,1,90
16,3,43,p,1.3091374159994302,2,135
16,3,44,p,1.0439059589989483,3,74
16,3,45,p,1.081361749998905,2,79
16,3,46,q,1.1969189579976955,2,52
16,3,47,q,1.2031183340004643,3,98
16,3,48,p,1.0139031250000698,3,73
16,3,49,q,1.0341484590026084,3,140
16,3,50,q,1.0332564580021426,3,111
16,3,51,p,1.5826227920006204,3,43
16,3,52,p,1.016524208996998,3,50
16,3,53,p,0.8852652909990866,1,17
16,3,54,p,1.129734666999866,1,7
16,3,55,q,1.6013496659979864,2,32
16,3,56,q,1.0763369999986026,1,20
16,3,57,q,1.2179253750000498,3,126
16,3,58,q,1.2184557500004305,2,76
16,3,59,q,0.6563383750035428,2,91
16,3,60,p,1.331387000001996,3,21
17,1,1,q,1.088708957999188,3,98
17,1,2,p,0.9086891249971814,2,118
17,1,3,q,0.8626306660007685,1,13
17,1,4,q,0.5104840410022007,3,43
17,1,5,q,0.6851517079994665,3,12
17,1,6,q,0.681437791998178,2,49
17,1,7,q,0.6859845409999252,1,2
17,1,8,p,0.6378206250010408,2,19
17,1,9,q,0.47625212500133784,2,33
17,1,10,q,0.6080487500003073,2,22
17,1,11,q,0.6867214999983844,3,100
17,1,12,p,0.6078424579973216,2,25
17,1,13,q,0.8108822499998496,2,113
17,1,14,q,0.7388907919994381,3,18
17,1,15,q,0.7165953340008855,2,30
17,1,16,p,0.6696612920022744,1,14
17,1,17,q,0.598924291000003,3,115
17,1,18,p,1.192428165999445,2,10
17,1,19,p,0.6720270829973742,2,7
17,1,20,q,0.6858207080003922,3,68
17,1,21,p,0.7932614169985754,3,108
17,1,22,q,0.7908318749978207,2,105
17,1,23,p,1.2122190420013794,3,53
17,1,24,p,1.9538334580029184,2,116
17,1,25,p,1.0549677499984682,3,27
17,1,26,q,0.7009926660030033,2,134
17,1,27,p,1.2244446670010802,1,11
17,1,28,p,0.8037934159983706,3,109
17,1,29,q,1.0189222499975583,3,135
17,1,30,p,1.1767017079982909,1,110
17,1,31,q,0.7844642920026672,3,102
17,1,32,q,1.0955919160005578,1,17
17,1,33,q,0.6543414169973403,3,57
17,1,34,q,2.9666297090006992,3,1
17,1,35,p,0.7869489160002558,2,23
17,1,36,q,1.033532583998749,2,76
17,1,37,p,1.747425999998086,2,16
17,1,38,q,1.7221908329993312,3,21
17,1,39,q,2.4577272919996176,3,117
17,1,40,p,0.674932041001739,1,37
17,1,41,q,0.9672725420023198,2,101
17,1,42,p,1.7099386250010866,3,107
17,1,43,q,1.5134095840003283,2,52
17,1,44,q,1.1776066249985888,2,111
17,1,45,q,2.0492803330016613,3,128
17,1,46,q,0.9096344589997898,1,4
17,1,47,p,1.007925999998406,1,104
17,1,48,p,1.7314298330020392,3,32
17,1,49,p,1.1121839580009691,2,28
17,1,50,q,1.6360357500016107,2,139
17,1,51,p,2.56250504199852,2,95
17,1,52,q,1.248226292002073,1,26
17,1,53,q,1.2124270419990353,3,20
17,1,54,p,0.913615249999566,1,106
17,1,55,p,1.1600172920007026,1,9
17,1,56,p,1.0373967080013244,3,131
17,1,57,p,0.729871291998279,1,112
17,1,58,p,3.3297323750011856,1,66
17,1,59,p,1.6493358750012703,2,29
17,1,60,q,1.0286600409999664,2,114
17,2,1,q,1.697533916001703,3,70
17,2,2,q,1.355760416998237,2,112
17,2,3,q,0.611640625000291,1,134
17,2,4,p,1.654669167000975,1,126
17,2,5,q,0.6341705000013462,1,139
17,2,6,q,0.8999662089991034,3,69
17,2,7,p,1.6361321670010511,1,38
17,2,8,p,3.1510800830001244,1,33
17,2,9,p,1.9841517499990005,1,129
17,2,10,q,0.6775383329986653,1,114
17,2,11,p,3.1572326669993345,1,119
17,2,12,q,0.7028284170010011,1,107
17,2,13,q,1.3969601669996337,3,101
17,2,14,p,0.9760454589995788,3,45
17,2,15,p,2.4500900419989193,1,56
17,2,16,q,0.9162001670010796,2,36
17,2,17,q,2.5949183750017255,3,52
17,2,18,q,4.957221458997083,1,29
17,2,19,q,1.766665125000145,2,57
17,2,20,p,1.4824432499990507,1,128
17,2,21,p,2.5552597909991164,2,124
17,2,22,p,1.3481427080005233,1,125
17,2,23,q,1.31705941600012,3,47
17,2,24,p,0.8486484159984684,3,95
17,2,25,q,2.7277180419987417,1,120
17,2,26,q,0.7714584159984952,3,4
17,2,27,p,1.0049832920012705,2,51
17,2,28,p,1.331170583998755,3,132
17,2,29,q,1.1474587499978952,3,49
17,2,30,q,1.367715374999534,2,53
17,2,31,p,0.6654005409982346,1,61
17,2,32,q,1.083428208999976,2,68
17,2,33,p,4.187666083002114,1,76
17,2,34,q,1.2886659579999105,1,100
17,2,35,p,1.138946875002148,1,20
17,2,36,p,1.743671665997681,2,131
17,2,37,p,1.4171199580014218,3,39
17,2,38,q,0.9949605839974538,2,123
17,2,39,p,0.9815326250027284,1,28
17,2,40,p,1.4409333750008957,1,71
17,2,41,q,1.061969375001354,1,135
17,2,42,q,0.9508056249978836,2,17
17,2,43,p,1.5324798750007176,3,66
17,2,44,q,2.3783267910002905,1,43
17,2,45,p,1.407656916999258,2,60
17,2,46,p,1.9590788329987845,2,37
17,2,47,p,1.0829499999999823,1,122
17,2,48,p,2.808179999999993,2,50
17,2,49,p,0.8697682919992076,2,130
17,2,50,p,1.4840344580006786,3,62
17,2,51,p,1.2555302920009126,2,98
17,2,52,p,1.2550870419981948,2,108
17,2,53,p,1.840573499997845,3,105
17,2,54,p,1.1394441250013188,2,42
17,2,55,q,0.7814140840018808,2,102
17,2,56,p,1.5429331669984094,1,41
17,2,57,p,0.8474954169978446,1,44
17,2,58,p,1.170983708001586,1,64
17,2,59,p,0.9839252079982544,2,59
17,2,60,p,1.4526908340012596,1,67
