pid,block,trial,keypress,rt,ori,stim,fam,cond,acc
1,1,1,q,0.6689921249999315,2,28,1,Famous,1
1,1,2,q,0.6247402079970925,2,100,0,New,0
1,1,3,p,0.4978818339986901,1,73,0,New,1
1,1,4,p,0.5534897079996881,1,36,1,Famous,0
1,1,5,q,0.6141972080004052,3,12,1,Famous,1
1,1,6,p,0.5410978749969217,1,41,0,New,1
1,1,7,q,0.5635933750018012,2,45,1,Famous,1
1,1,8,p,0.497260832999018,1,101,0,New,1
1,1,9,p,0.6302636660002463,2,43,0,New,1
1,1,10,q,0.8130547500004468,1,44,1,Famous,1
1,1,11,q,0.6579892919980921,1,58,1,Famous,1
1,1,12,q,0.7025470829976257,1,29,1,Famous,1
1,1,13,q,0.5998624999992899,1,150,0,New,0
1,1,14,p,0.5157584580010734,1,91,0,New,1
1,1,15,q,0.6656767920030688,1,4,0,New,0
1,1,16,q,0.8184993340000801,2,41,1,Famous,1
1,1,17,q,0.8223902499994438,1,10,1,Famous,1
1,1,18,p,0.848132250001072,2,123,0,New,1
1,1,19,q,0.7159554999998363,3,14,1,Famous,1
1,1,20,p,0.597991999999067,3,139,0,New,1
1,1,21,q,0.774985750002088,3,68,0,New,0
1,1,22,p,0.5624046250013635,1,64,0,New,1
1,1,23,q,0.6655099999989034,2,38,1,Famous,1
1,1,24,q,0.8058080420014448,3,35,1,Famous,1
1,1,26,q,0.796249708000687,1,126,0,New,0
1,1,27,p,0.6974681669998972,1,53,0,New,1
1,1,28,q,0.8036480420014414,2,8,1,Famous,1
1,1,29,p,0.7949076670010982,2,112,0,New,1
1,1,30,p,0.5112068749986065,2,93,0,New,1
1,1,31,p,0.6982088340009796,3,140,0,New,1
1,1,32,q,0.7056749170005787,3,34,1,Famous,1
1,1,33,q,0.7612789580016397,3,40,1,Famous,1
1,1,34,q,0.8206687499987311,2,24,1,Famous,1
1,1,35,p,0.676299167000252,3,52,0,New,1
1,1,36,p,0.5724875419982709,3,62,0,New,1
1,1,37,q,0.6681644170021173,2,21,1,Famous,1
1,1,38,p,0.6571919159978279,3,77,0,New,1
1,1,39,q,0.8509972499996366,3,115,0,New,0
1,1,42,p,0.550558541999635,1,153,0,New,1
1,1,43,p,0.5428960419994837,3,10,0,New,1
1,1,44,p,0.604434458000469,3,27,1,Famous,0
1,1,45,q,0.7087504580013047,2,48,1,Famous,1
1,1,46,p,0.5265417500013427,1,49,0,New,1
1,1,47,q,0.8508110830007354,1,1,1,Famous,1
1,1,48,q,0.6575948749996314,2,17,1,Famous,1
1,1,49,q,0.6119134580003447,3,46,1,Famous,1
1,1,50,p,0.7489913339995837,2,114,0,New,1
1,1,51,p,0.47567916700063506,1,72,0,New,1
1,1,52,q,0.6126120829976571,3,32,1,Famous,1
1,1,53,q,0.661182583997288,3,39,1,Famous,1
1,1,54,p,0.5999727910020738,1,148,0,New,1
1,1,55,q,0.6123048329973244,3,37,1,Famous,1
1,1,56,q,0.6638075420014502,1,52,1,Famous,1
1,1,57,q,0.7656971249998605,1,11,1,Famous,1
1,1,58,q,0.7193542079985491,3,18,1,Famous,1
1,1,59,p,0.5062339159994735,1,28,0,New,1
1,1,60,p,0.7900668750007753,3,14,0,New,1
1,2,1,p,0.5143783750027069,2,84,0,New,1
1,2,2,p,0.6498456660010561,3,122,0,New,1
1,2,3,q,0.5629169159983576,1,34,1,Famous,1
1,2,4,q,0.6160965829985798,2,40,1,Famous,1
1,2,5,p,0.6980845420002879,3,109,0,New,1
1,2,6,q,0.6124801670011948,2,52,1,Famous,1
1,2,7,p,0.7020094580002478,3,146,0,New,1
1,2,8,q,0.6641147499976796,1,37,1,Famous,1
1,2,10,q,0.6588797910007997,3,48,1,Famous,1
1,2,11,p,0.6195884580010897,2,14,1,Famous,0
1,2,12,q,0.7122760000020207,1,28,1,Famous,1
1,2,13,q,0.6492776250015595,3,131,0,New,0
1,2,14,q,0.7174928340027691,3,1,1,Famous,1
1,2,15,p,0.6686545000011392,1,19,0,New,1
1,2,16,p,0.647070958999393,1,134,0,New,1
1,2,17,q,0.6068168330020853,3,29,1,Famous,1
1,2,18,q,0.65938350000215,1,32,1,Famous,1
1,2,19,q,0.6173005829987233,3,17,1,Famous,1
1,2,20,p,0.49340912499974365,1,27,0,New,1
1,2,21,p,0.4779024159979599,3,83,0,New,1
1,2,22,p,0.4767911660019308,2,44,0,New,1
1,2,23,p,0.6271492499981832,2,80,0,New,1
1,2,24,p,0.5566347909989418,1,95,0,New,1
1,2,25,p,0.5891041249997215,2,66,0,New,1
1,2,26,p,0.6140252080003847,3,102,0,New,1
1,2,27,p,0.44590304200028186,2,39,0,New,1
1,2,28,q,0.5038015409991203,3,38,1,Famous,1
1,2,29,q,0.7607726250025735,3,6,1,Famous,1
1,2,30,q,0.7527817920017696,2,58,1,Famous,1
1,2,31,p,0.5881236249988433,1,38,0,New,1
1,2,32,q,0.7671061660003033,3,10,1,Famous,1
1,2,33,q,0.5930193749991304,2,57,0,New,0
1,2,34,q,0.6119239999970887,2,12,1,Famous,1
1,2,35,p,0.6993760839977767,3,136,0,New,1
1,2,36,q,0.7154330829980609,2,11,1,Famous,1
1,2,37,q,0.8189361250006186,1,24,1,Famous,1
1,2,38,p,0.6473162500005856,1,117,0,New,1
1,2,39,p,0.6381429159991967,1,13,0,New,1
1,2,40,q,0.7589362500002608,1,8,1,Famous,1
1,2,41,q,0.6684543750016019,1,45,1,Famous,1
1,2,42,q,0.6153996670000197,2,44,1,Famous,1
1,2,43,q,0.7469050420004351,2,47,1,Famous,1
1,2,44,p,0.8157310830029019,3,21,1,Famous,0
1,2,45,q,0.6403171660022053,2,35,1,Famous,1
1,2,46,q,0.8468743749981513,2,138,0,New,0
1,2,47,p,0.6499971670018567,3,111,0,New,1
1,2,48,p,0.542016125000373,1,61,0,New,1
1,2,49,p,0.8467223340012424,3,113,0,New,1
1,2,50,q,0.6611300419972395,1,46,1,Famous,1
1,2,51,p,0.6112802909992752,3,88,0,New,1
1,2,52,p,0.5144641249971755,1,32,0,New,1
1,2,53,p,0.5472482499972102,2,45,0,New,1
1,2,54,p,0.449438250001549,2,26,0,New,1
1,2,55,q,0.6627613329983433,2,18,1,Famous,1
1,2,56,p,0.5585742910006957,1,87,0,New,1
1,2,57,q,0.7686295829989831,2,27,1,Famous,1
1,2,58,p,0.4397285000013653,2,59,0,New,1
1,2,59,q,0.6534925419982756,3,41,1,Famous,1
1,2,60,q,0.6139168749978126,2,39,1,Famous,1
1,3,1,q,0.6648928750000778,1,40,1,Famous,1
1,3,2,p,0.6487238330009859,3,144,0,New,1
1,3,3,q,0.6123588329974154,2,34,1,Famous,1
1,3,4,q,0.4745964579997235,3,12,0,New,0
1,3,5,p,0.5969622080010595,3,120,0,New,1
1,3,6,p,0.5776519999999437,1,97,0,New,1
1,3,7,p,0.6462100830030977,3,129,0,New,1
1,3,9,p,0.4867763330003072,2,23,0,New,1
1,3,10,p,0.5511383329976525,1,116,0,New,1
1,3,11,q,0.6606546659968444,1,35,1,Famous,1
1,3,12,p,0.5665102499988279,1,21,0,New,1
1,3,13,q,0.7636794999998529,1,18,1,Famous,1
1,3,14,q,0.6141094170016004,2,29,1,Famous,1
1,3,15,q,0.6123062500009837,3,44,1,Famous,1
1,3,16,q,0.6578544590011006,3,58,1,Famous,1
1,3,17,q,0.6018422500019369,3,8,1,Famous,1
1,3,18,p,0.5122121669992339,1,14,1,Famous,0
1,3,19,p,0.51407616600045,1,18,0,New,1
1,3,20,p,0.6581565420019615,1,92,0,New,1
1,3,21,p,0.5488709169985668,1,143,0,New,1
1,3,22,p,0.7535287089995109,3,75,0,New,1
1,3,23,p,0.4726013340005011,1,51,0,New,1
1,3,24,q,0.5118763330028742,3,24,1,Famous,1
1,3,25,q,0.6880697499982489,2,1,1,Famous,1
1,3,26,p,0.7015101659999345,3,132,0,New,1
1,3,27,p,0.49957108399758,3,94,0,New,1
1,3,28,p,0.5456567500004894,1,71,0,New,1
1,3,29,q,0.601410916999157,3,45,1,Famous,1
1,3,30,p,0.6601332499994896,3,16,0,New,1
1,3,31,q,0.6691288750007516,2,32,1,Famous,1
1,3,33,p,0.5020120839981246,2,67,0,New,1
1,3,34,p,0.5197515419968113,3,29,0,New,1
1,3,35,p,0.5081722920003813,1,39,1,Famous,0
1,3,36,q,0.7092737919992942,3,52,1,Famous,1
1,3,37,p,0.6195592500007479,3,20,0,New,1
1,3,38,p,0.5268364169969573,3,76,0,New,1
1,3,39,q,0.7174644580009044,1,12,1,Famous,1
1,3,40,q,0.658398292001948,3,28,1,Famous,1
1,3,41,q,0.6168657499983965,1,17,1,Famous,1
1,3,42,q,0.7561854160012444,1,41,1,Famous,1
1,3,43,p,0.4948538339995139,1,74,0,New,1
1,3,44,q,0.6703235409986519,2,37,1,Famous,1
1,3,45,q,0.616807415997755,2,36,1,Famous,1
1,3,46,p,0.6121764589988743,3,98,0,New,1
1,3,47,p,0.45654512499822886,2,10,1,Famous,0
1,3,48,p,0.6095795420005743,2,11,0,New,1
1,3,49,p,0.6976950420030334,1,135,0,New,1
1,3,50,q,0.8163313750010275,1,6,1,Famous,1
1,3,51,q,0.6115231669973582,1,38,1,Famous,1
1,3,52,q,0.6123867089991109,1,27,1,Famous,1
1,3,53,p,0.6503219170008379,3,119,0,New,1
1,3,54,q,0.6617412499981583,2,46,1,Famous,1
1,3,56,p,0.7457319589993858,3,118,0,New,1
1,3,57,p,0.5819612499981304,2,70,0,New,1
1,3,58,p,0.656950833999872,1,48,1,Famous,0
1,3,59,q,0.6600442919989291,3,11,1,Famous,1
1,3,60,p,0.7033112090030045,1,47,1,Famous,0
3,1,1,q,0.8244672500004526,2,4,1,Famous,1
3,1,2,p,0.5459344999981113,1,1,0,New,1
3,1,3,q,0.7164489170027082,3,1,1,Famous,1
3,1,4,p,0.6866710419999436,1,19,0,New,1
3,1,5,p,0.7466902919986751,2,134,0,New,1
3,1,6,p,0.6002636669982166,2,87,0,New,1
3,1,7,p,0.7770626249985071,3,47,1,Famous,0
3,1,8,p,0.8001981250017707,3,151,0,New,1
3,1,9,q,0.610481792002247,1,52,1,Famous,1
3,1,10,q,0.6604036669996276,3,3,1,Famous,1
3,1,11,p,0.7481927080007154,2,148,0,New,1
3,1,12,q,0.7133398750011111,2,34,1,Famous,1
3,1,13,p,0.6556047090016364,1,32,0,New,1
3,1,14,q,0.8148747500017635,1,28,1,Famous,1
3,1,15,p,0.6598680419992888,2,22,0,New,1
3,1,16,p,0.694740915998409,1,57,0,New,1
3,1,17,p,0.8028543750006065,3,37,0,New,1
3,1,18,q,0.706346166000003,3,35,1,Famous,1
3,1,19,p,0.7002416669965896,3,142,0,New,1
3,1,20,q,0.6605586250007036,3,26,1,Famous,1
3,1,21,q,0.6984469579983852,2,45,1,Famous,1
3,1,22,p,0.6474445419989934,2,138,0,New,1
3,1,23,q,0.6124308340004063,1,61,0,New,0
3,1,25,q,0.7596055829999386,2,48,1,Famous,1
3,1,26,p,0.6372052079968853,1,14,0,New,1
3,1,27,p,0.6252884579989768,2,50,0,New,1
3,1,28,p,0.7919930000025488,2,39,0,New,1
3,1,29,q,0.717117459000292,2,59,1,Famous,1
3,1,30,q,0.7617149580000842,3,31,1,Famous,1
3,1,31,p,0.5866250830003992,1,91,0,New,1
3,1,32,p,0.533585666998988,2,89,0,New,1
3,1,33,p,0.7054795000003651,1,36,1,Famous,0
3,1,34,q,0.7563735410003574,1,53,1,Famous,1
3,1,35,p,0.5901433330000145,1,94,0,New,1
3,1,36,q,0.717568833999394,2,38,1,Famous,1
3,1,37,p,0.6482372080026835,3,131,0,New,1
3,1,38,p,0.6519235000014305,3,93,0,New,1
3,1,39,q,0.7014182499988237,3,8,1,Famous,1
3,1,40,p,0.6457503749988973,3,112,0,New,1
3,1,41,p,0.6035114580008667,2,108,0,New,1
3,1,43,q,0.7558878750023723,3,54,1,Famous,1
3,1,45,p,0.6477377919982246,1,111,0,New,1
3,1,46,p,0.5417907079972792,3,21,0,New,1
3,1,47,q,0.7086977500002831,1,58,1,Famous,1
3,1,48,p,0.5118307500015362,3,92,0,New,1
3,1,49,p,0.6685192080003617,3,17,1,Famous,0
3,1,50,q,0.6652817920003145,2,41,1,Famous,1
3,1,51,p,0.6809081659994263,1,62,0,New,1
3,1,52,p,0.6776071669992234,2,9,0,New,1
3,1,53,p,0.6462475420012197,3,129,0,New,1
3,1,54,q,0.61606541600122,2,32,1,Famous,1
3,1,55,q,0.7113333750021411,2,56,1,Famous,1
3,1,56,p,0.717355332999432,2,42,1,Famous,0
3,1,57,q,0.7650965419998101,3,5,1,Famous,1
3,1,58,p,0.7636221249995288,3,37,1,Famous,0
3,1,59,q,0.6665645829998539,2,23,1,Famous,1
3,1,60,q,0.6662593750006636,1,12,1,Famous,1
3,2,1,p,0.7120389999981853,3,20,0,New,1
3,2,2,p,0.5880287079999107,3,74,0,New,1
3,2,3,q,0.6982007499973406,1,42,1,Famous,1
3,2,4,q,0.6630482500004291,1,5,1,Famous,1
3,2,5,q,0.604859540999314,3,41,1,Famous,1
3,2,6,q,0.6081160419998923,3,48,1,Famous,1
3,2,7,q,0.7150439170000027,1,59,1,Famous,1
3,2,8,q,0.7012296249995416,2,116,0,New,0
3,2,9,q,0.6080119580001337,3,28,1,Famous,1
3,2,10,q,0.6071763329964597,2,17,1,Famous,1
3,2,11,q,0.7963068749995728,3,110,0,New,0
3,2,13,p,0.5503727909999725,2,49,0,New,1
3,2,14,p,0.6521682920028979,3,122,0,New,1
3,2,15,q,0.6192444170010276,3,12,1,Famous,1
3,2,16,p,0.5994977080008539,2,115,0,New,1
3,2,17,q,0.6034977919989615,2,58,1,Famous,1
3,2,18,q,0.6551414999994449,3,36,1,Famous,1
3,2,19,p,0.608216958000412,3,52,0,New,1
3,2,20,q,0.6537658749984985,1,47,1,Famous,1
3,2,21,q,0.5550995000012335,1,54,1,Famous,1
3,2,22,p,0.5673056669984362,3,16,0,New,1
3,2,23,q,0.6093265410017921,1,23,1,Famous,1
3,2,24,p,0.7266252500012342,3,84,0,New,1
3,2,25,q,0.6587532919984369,1,8,1,Famous,1
3,2,26,q,0.6590958329979912,3,52,1,Famous,1
3,2,27,q,0.6152375840028981,3,32,1,Famous,1
3,2,28,q,0.7134023750004417,3,56,1,Famous,1
3,2,29,q,0.638901624999562,2,1,1,Famous,1
3,2,30,q,0.7186639589999686,1,45,1,Famous,1
3,2,31,q,0.6563835829983873,2,31,1,Famous,1
3,2,32,q,0.6614396670011047,1,46,1,Famous,1
3,2,33,p,0.7569060419991729,3,4,1,Famous,0
3,2,34,p,0.7399916670001403,2,45,0,New,1
3,2,35,p,0.7469622079988767,2,132,0,New,1
3,2,36,q,0.6128977920016041,1,34,1,Famous,1
3,2,37,p,0.5599665829977312,3,67,0,New,1
3,2,38,p,0.570314791999408,1,36,0,New,1
3,2,39,p,0.49351404099797946,2,72,0,New,1
3,2,40,p,0.7211545409991231,1,90,0,New,1
3,2,41,q,0.7150837919980404,1,38,1,Famous,1
3,2,42,q,0.6154114579985617,1,3,1,Famous,1
3,2,43,q,0.6681630829989444,3,53,1,Famous,1
3,2,44,q,0.8263471249993017,2,14,1,Famous,1
3,2,45,p,0.5575206249995972,1,95,0,New,1
3,2,46,p,0.693651208999654,3,107,0,New,1
3,2,47,q,0.609472750002169,1,26,1,Famous,1
3,2,48,p,0.6004220830000122,1,136,0,New,1
3,2,49,p,0.5840568329986127,3,97,0,New,1
3,2,50,q,0.665436667000904,1,37,1,Famous,1
3,2,51,q,0.7390755410015117,2,35,1,Famous,1
3,2,52,p,0.47346912499779137,2,73,0,New,1
3,2,53,p,0.5472367080001277,3,126,0,New,1
3,2,54,p,0.5369756250001956,1,17,0,New,1
3,2,55,p,0.45426108299943735,3,33,0,New,1
3,2,56,p,0.4985127920008381,3,42,0,New,1
3,2,57,p,0.5171592910010077,1,79,0,New,1
3,2,58,p,0.44622816600167425,3,77,0,New,1
3,2,59,p,0.5475556249984947,3,143,0,New,1
3,2,60,p,0.5028859580015705,3,30,0,New,1
3,3,1,q,0.7173425839973788,2,3,1,Famous,1
3,3,2,q,0.6124085000010382,1,31,1,Famous,1
3,3,3,q,0.5960437079993426,3,130,0,New,0
3,3,4,p,0.6125752920015657,1,44,0,New,1
3,3,5,p,0.6981339169979037,3,152,0,New,1
3,3,6,q,0.6038337089994457,2,8,1,Famous,1
3,3,7,p,0.5174790410019341,2,83,0,New,1
3,3,8,p,0.4967175419988053,1,4,0,New,1
3,3,9,p,0.4693801670000539,2,38,0,New,1
3,3,10,p,0.5461750840004242,2,128,0,New,1
3,3,11,p,0.5525034999991476,1,118,0,New,1
3,3,12,p,0.5146396670024842,1,100,0,New,1
3,3,13,q,0.7044573329985724,3,38,1,Famous,1
3,3,14,q,0.7955091670010006,2,47,1,Famous,1
3,3,15,p,0.6083281249993888,3,88,0,New,1
3,3,16,p,0.6471866249994491,1,123,0,New,1
3,3,17,p,0.5220985420019133,1,29,0,New,1
3,3,18,p,0.46927825000238954,1,80,0,New,1
3,3,19,q,0.7207462910009781,2,26,1,Famous,1
3,3,20,p,0.5413557499996386,3,23,1,Famous,0
3,3,21,p,0.5446667910000542,3,98,0,New,1
3,3,22,p,0.5943090420005319,3,69,0,New,1
3,3,23,q,0.6637454590018024,2,12,1,Famous,1
3,3,24,q,0.5636227079994569,2,54,1,Famous,1
3,3,25,q,0.6677690420001454,1,17,1,Famous,1
3,3,26,q,0.6066240000000107,1,32,1,Famous,1
3,3,27,q,0.7073848330001056,1,48,1,Famous,1
3,3,28,q,0.6064612500013027,2,5,1,Famous,1
3,3,29,p,0.6200544589992205,1,11,0,New,1
3,3,30,q,0.7089410000007774,3,58,1,Famous,1
3,3,31,q,0.6115542499974254,2,46,1,Famous,1
3,3,32,q,0.7105864580007619,3,34,1,Famous,1
3,3,34,q,0.755458625000756,3,45,1,Famous,1
3,3,35,q,0.7194134589990426,2,37,1,Famous,1
3,3,36,q,0.6983310420000635,1,114,0,New,0
3,3,37,p,0.8210487500000454,2,36,1,Famous,0
3,3,38,q,0.7125479169990285,3,59,1,Famous,1
3,3,39,q,0.6497277499984193,1,1,1,Famous,1
3,3,40,q,0.7196029580009053,2,28,1,Famous,1
3,3,41,p,0.6602567920017464,1,4,1,Famous,0
3,3,42,p,0.7419165000028443,1,125,0,New,1
3,3,43,p,0.6533881670002302,2,64,0,New,1
3,3,44,q,0.6175509999993665,2,52,1,Famous,1
3,3,45,p,0.6154722080027568,3,42,1,Famous,0
3,3,46,q,0.6459976670012111,1,53,0,New,0
3,3,47,p,0.5904026250027528,1,41,0,New,1
3,3,48,p,0.7000230420017033,2,147,0,New,1
3,3,49,q,0.8047181250003632,1,41,1,Famous,1
3,3,50,q,0.6612341670006572,1,35,1,Famous,1
3,3,51,q,0.6637822080010665,1,14,1,Famous,1
3,3,52,q,0.7614808329999505,1,56,1,Famous,1
3,3,53,p,0.6346507089983788,1,75,0,New,1
3,3,54,p,0.6043741659996158,2,23,0,New,1
3,3,55,p,0.5868671249991166,1,82,0,New,1
3,3,56,p,0.6111052499982179,1,10,0,New,1
3,3,58,p,0.6970847499978845,2,144,0,New,1
3,3,59,p,0.6995845839992398,3,2,0,New,1
3,3,60,p,0.49785408299794653,3,47,0,New,1
