pid,block,trial,keypress,rt,ori,stim,fam,cond,missed_trial,acc
1,1,1,q,0.6221949999999197,2,52,1,Famous,no,1
1,1,2,q,0.8388191670001106,2,8,1,Famous,no,1
1,1,3,p,0.6906627919997845,1,73,0,Novel,no,1
1,1,5,q,0.766782750000857,3,38,1,Famous,no,1
1,1,6,q,0.7737755830003152,1,18,1,Famous,no,1
1,1,7,p,0.7061082079999323,1,51,1,Famous,no,0
1,1,8,q,0.7679258750013105,2,31,1,Famous,no,1
1,1,9,p,0.6262974589990336,3,84,0,Novel,no,1
1,1,10,q,0.8367069169999013,2,136,0,Novel,no,0
1,1,11,p,0.5725711659997614,3,74,0,Novel,no,1
1,1,12,q,0.851328167000247,2,46,1,Famous,no,1
1,1,14,q,0.8293332920002285,2,35,1,Famous,no,1
1,1,15,p,0.6780070000004343,2,17,0,Novel,no,1
1,1,16,p,0.6793440420005936,1,146,0,Novel,no,1
1,1,17,q,0.6829107079993264,2,125,0,Novel,no,0
1,1,18,q,0.697099041999536,1,28,1,Famous,no,1
1,1,19,p,0.8157479580004292,3,64,0,Novel,no,1
1,1,21,p,0.6973855839987664,1,19,1,Famous,no,0
1,1,22,q,0.7026204169997072,2,25,1,Famous,no,1
1,1,24,q,0.8531015419994219,3,59,1,Famous,no,1
1,1,25,q,0.5829863750004733,1,56,0,Novel,no,0
1,1,27,q,0.8294223749999219,2,129,0,Novel,no,0
1,1,28,q,0.6994725829990784,2,54,1,Famous,no,1
1,1,29,p,0.576621583000815,2,61,0,Novel,no,1
1,1,30,q,0.7155701249994308,3,25,0,Novel,no,0
1,1,31,q,0.8553660000015952,1,40,1,Famous,no,1
1,1,32,q,0.8582775830000173,3,1,1,Famous,no,1
1,1,33,p,0.5877362500013987,2,38,0,Novel,no,1
1,1,34,q,0.8443195410000044,1,41,1,Famous,no,1
1,1,35,q,0.6152654159996018,3,34,1,Famous,no,1
1,1,36,p,0.7026471669996681,3,10,1,Famous,no,0
1,1,38,q,0.7845803749987681,2,32,1,Famous,no,1
1,1,39,q,0.7621094590012945,1,143,0,Novel,no,0
1,1,42,p,0.7853875839991815,2,4,1,Famous,no,0
1,1,43,q,0.6986845829997037,2,36,1,Famous,no,1
1,1,44,p,0.75723679100156,3,116,0,Novel,no,1
1,1,45,q,0.764933790998839,1,14,0,Novel,no,0
1,1,46,p,0.6200347920002969,3,100,0,Novel,no,1
1,1,47,p,0.6194897920013318,3,95,0,Novel,no,1
1,1,49,q,0.7035556669998186,2,24,1,Famous,no,1
1,1,50,p,0.6202356249996228,2,37,0,Novel,no,1
1,1,51,p,0.6982776670010935,2,26,1,Famous,no,0
1,1,52,q,0.7732302499989601,3,29,1,Famous,no,1
1,1,53,q,0.7358638750010869,1,78,0,Novel,no,0
1,1,54,p,0.721447416999581,3,60,0,Novel,no,1
1,1,55,p,0.7604115409994847,1,135,0,Novel,no,1
1,1,56,p,0.6739109160007501,1,97,0,Novel,no,1
1,1,57,q,0.7584452079991024,2,53,0,Novel,no,0
1,1,58,q,0.693982082999355,2,48,1,Famous,no,1
1,1,59,q,0.7793259999998554,2,23,1,Famous,no,1
1,1,60,p,0.5867300409991003,1,80,0,Novel,no,1
1,2,1,q,0.6928296660007618,1,32,1,Famous,no,1
1,2,2,q,0.575589250000121,2,82,0,Novel,no,0
1,2,3,p,0.7604036249995261,2,18,0,Novel,no,1
1,2,4,p,0.6335236249997251,1,11,0,Novel,no,1
1,2,5,q,0.760678458998882,1,4,1,Famous,no,1
1,2,7,q,0.7764487910008029,1,26,1,Famous,no,1
1,2,8,q,0.7756872080008179,2,45,1,Famous,no,1
1,2,9,p,0.7564905420003925,2,110,0,Novel,no,1
1,2,10,p,0.732188916999803,1,52,0,Novel,no,1
1,2,11,q,0.7647299580003164,3,27,1,Famous,no,1
1,2,13,p,0.7626347500008706,3,138,0,Novel,no,1
1,2,14,q,0.6954125829997793,2,38,1,Famous,no,1
1,2,15,p,0.6270245839987183,1,21,0,Novel,no,1
1,2,17,q,0.8409844170000724,3,8,1,Famous,no,1
1,2,18,q,0.7586807909992785,1,1,1,Famous,no,1
1,2,19,q,0.6912099169985595,1,52,1,Famous,no,1
1,2,21,p,0.7164246249994903,3,77,0,Novel,no,1
1,2,22,p,0.7567282920008438,2,118,0,Novel,no,1
1,2,23,q,0.7030704580010934,2,41,1,Famous,no,1
1,2,24,p,0.5436544999993203,2,34,1,Famous,no,0
1,2,25,q,0.6971616249993531,1,54,1,Famous,no,1
1,2,26,q,0.6212630410009297,1,12,1,Famous,no,1
1,2,27,p,0.6430461250001827,3,32,0,Novel,no,1
1,2,28,p,0.7630564169994614,1,105,0,Novel,no,1
1,2,29,p,0.6706922089997533,2,16,0,Novel,no,1
1,2,30,q,0.6308820409994951,2,9,0,Novel,no,0
1,2,31,p,0.5907701249998354,2,29,0,Novel,no,1
1,2,32,p,0.6835775829986233,3,7,0,Novel,no,1
1,2,33,q,0.6378490839997539,2,75,0,Novel,no,0
1,2,34,q,0.8581016669995734,2,18,1,Famous,no,1
1,2,35,q,0.7788796660006483,3,46,1,Famous,no,1
1,2,36,q,0.7726860419988952,3,28,1,Famous,no,1
1,2,37,p,0.7566185830000904,2,139,0,Novel,no,1
1,2,38,p,0.817204708000645,3,76,0,Novel,no,1
1,2,39,q,0.7755572919995757,3,51,1,Famous,no,1
1,2,41,q,0.8528653329994995,3,24,1,Famous,no,1
1,2,42,q,0.8540710000015679,2,59,1,Famous,no,1
1,2,43,p,0.6870203340004082,3,36,1,Famous,no,0
1,2,44,q,0.6127021669999522,1,29,1,Famous,no,1
1,2,45,q,0.7688829170001554,2,10,1,Famous,no,1
1,2,46,q,0.6166484169989417,1,23,1,Famous,no,1
1,2,47,q,0.5484914999997272,2,68,0,Novel,no,0
1,2,48,p,0.6966526659998635,3,31,1,Famous,no,0
1,2,49,q,0.726797750001424,1,36,0,Novel,no,0
1,2,50,q,0.6978517080005986,3,5,1,Famous,no,1
1,2,51,p,0.7274911250005971,3,51,0,Novel,no,1
1,2,52,q,0.7356600829989475,3,26,0,Novel,no,0
1,2,55,q,0.7697859580002842,3,48,1,Famous,no,1
1,2,56,q,0.5809086250010296,2,92,0,Novel,no,0
1,2,58,q,0.8313245420013118,3,40,1,Famous,no,1
1,2,59,p,0.6235911250005302,3,93,0,Novel,no,1
1,2,60,p,0.7639605419990403,3,142,0,Novel,no,1
1,3,1,p,0.6460746249995282,2,20,0,Novel,no,1
1,3,2,q,0.8604693750003207,2,29,1,Famous,no,1
1,3,3,q,0.6808575420000125,2,1,1,Famous,no,1
1,3,4,q,0.6763302920007845,3,91,0,Novel,no,0
1,3,5,p,0.683549999999741,2,69,0,Novel,no,1
1,3,6,p,0.8377596660011477,3,108,0,Novel,no,1
1,3,7,q,0.7604344999999739,2,145,0,Novel,no,0
1,3,8,p,0.6233816669991938,2,10,0,Novel,no,1
1,3,9,p,0.7581328750002285,1,144,0,Novel,no,1
1,3,10,q,0.7642477500012319,1,47,0,Novel,no,0
1,3,11,q,0.5755954579999525,2,13,0,Novel,no,0
1,3,12,q,0.6979393750007148,1,10,1,Famous,no,1
1,3,14,p,0.7591600420000759,1,89,0,Novel,no,1
1,3,15,p,0.8193640829995275,1,4,0,Novel,no,1
1,3,16,p,0.7620866670004034,1,102,0,Novel,no,1
1,3,17,q,0.4750371250011085,2,28,1,Famous,no,1
1,3,18,q,0.5480192919985711,2,27,1,Famous,no,1
1,3,19,q,0.6198499579986674,2,51,1,Famous,no,1
1,3,20,p,0.8366559999994934,2,123,0,Novel,no,1
1,3,21,q,0.543090500001199,2,12,1,Famous,no,1
1,3,22,q,0.5437407499994151,2,62,0,Novel,no,0
1,3,23,p,0.6818357499996637,3,98,0,Novel,no,1
1,3,24,q,0.6995344999995723,1,46,1,Famous,no,1
1,3,25,p,0.6779195420003816,3,87,0,Novel,no,1
1,3,28,p,0.7599590829995577,1,150,0,Novel,no,1
1,3,29,q,0.7678810420002264,3,54,1,Famous,no,1
1,3,30,q,0.6968567499989149,1,35,1,Famous,no,1
1,3,31,q,0.4920953750006447,3,19,0,Novel,no,0
1,3,32,q,0.6967183750002732,2,19,1,Famous,no,1
1,3,33,q,0.7006573750004463,3,18,1,Famous,no,1
1,3,34,p,0.6812489580006513,1,153,0,Novel,no,1
1,3,35,q,0.6972187499995925,1,31,1,Famous,no,1
1,3,36,p,0.7537474170003406,2,130,0,Novel,no,1
1,3,39,q,0.7022917079993931,1,45,1,Famous,no,1
1,3,41,q,0.6752682080004888,3,23,1,Famous,no,1
1,3,42,q,0.6888719579983444,1,48,1,Famous,no,1
1,3,43,p,0.7691404999986844,3,26,1,Famous,no,0
1,3,44,q,0.625006874999599,3,81,0,Novel,no,0
1,3,45,q,0.7043436660005682,1,34,1,Famous,no,1
1,3,46,p,0.7648421670000971,1,8,1,Famous,no,0
1,3,47,q,0.6928338330017141,3,52,1,Famous,no,1
1,3,48,p,0.723410958000386,1,59,1,Famous,no,0
1,3,49,q,0.6994775830007711,2,40,1,Famous,no,1
1,3,50,p,0.7155720419996214,2,66,0,Novel,no,1
1,3,51,p,0.5797154589999991,3,42,0,Novel,no,1
1,3,52,p,0.7730162090010708,2,12,0,Novel,no,1
1,3,53,p,0.662097750000612,2,88,0,Novel,no,1
1,3,54,p,0.6746454580006684,2,28,0,Novel,no,1
1,3,55,p,0.7628757500006031,2,117,0,Novel,no,1
1,3,56,q,0.6870385000001988,1,36,1,Famous,no,1
1,3,57,p,0.7730832919987733,1,5,1,Famous,no,0
1,3,58,q,0.7740708749988698,3,32,1,Famous,no,1
1,3,59,p,0.8347518329992454,1,67,0,Novel,no,1
1,3,60,q,0.8411996659997385,3,4,1,Famous,no,1
2,1,3,q,0.767603667000003,2,50,0,Novel,no,0
2,1,4,q,0.7210436250006751,3,68,0,Novel,no,0
2,1,6,p,0.5804737920007028,3,79,0,Novel,no,1
2,1,7,q,0.8593797079993237,2,44,1,Famous,no,1
2,1,9,q,0.7796167500000593,2,12,1,Famous,no,1
2,1,10,q,0.701141916000779,3,57,0,Novel,no,0
2,1,11,q,0.8611980830009998,2,59,1,Famous,no,1
2,1,14,q,0.8404878749988711,1,50,1,Famous,no,1
2,1,15,p,0.6216145840007812,3,42,1,Famous,no,0
2,1,16,q,0.8638269579987536,3,53,1,Famous,no,1
2,1,17,q,0.7016842909997649,3,32,1,Famous,no,1
2,1,19,q,0.7678536250004981,2,51,1,Famous,no,1
2,1,20,q,0.6075974169998517,3,111,0,Novel,no,0
2,1,21,q,0.694343208000646,3,58,1,Famous,no,1
2,1,22,q,0.68412008300038,1,71,0,Novel,no,0
2,1,25,p,0.6208794589983881,3,7,0,Novel,no,1
2,1,26,p,0.6689047499985463,2,98,0,Novel,no,1
2,1,27,p,0.83346708299905,2,35,1,Famous,no,0
2,1,28,p,0.8297163330007606,3,38,0,Novel,no,1
2,1,29,q,0.7048621249996359,2,38,1,Famous,no,1
2,1,30,p,0.8351557080004568,1,26,0,Novel,no,1
2,1,31,p,0.6636372079992725,3,87,0,Novel,no,1
2,1,32,p,0.6428209170007904,3,42,0,Novel,no,1
2,1,33,p,0.605952542000523,1,139,0,Novel,no,1
2,1,34,p,0.7671566669996537,2,90,0,Novel,no,1
2,1,35,p,0.7677883750002366,3,36,1,Famous,no,0
2,1,37,q,0.7764341659985803,2,45,1,Famous,no,1
2,1,38,p,0.6953624170000694,1,20,1,Famous,no,0
2,1,39,p,0.6981574999990698,2,29,1,Famous,no,0
2,1,43,q,0.7779285420001543,1,34,1,Famous,no,1
2,1,44,q,0.8454077919996053,3,31,1,Famous,no,1
2,1,45,q,0.8435074999997596,3,54,1,Famous,no,1
2,1,46,q,0.8440546660003747,2,9,1,Famous,no,1
2,1,47,p,0.8396001660003094,1,131,0,Novel,no,1
2,1,48,q,0.7773876669998572,2,23,1,Famous,no,1
2,1,49,q,0.7004496670015214,3,33,1,Famous,no,1
2,1,51,q,0.7066118750008172,2,60,1,Famous,no,1
2,1,53,q,0.6239401250004448,3,80,0,Novel,no,0
2,1,54,q,0.6682440419990598,3,47,1,Famous,no,1
2,1,55,q,0.6982387079988257,3,10,1,Famous,no,1
2,1,57,q,0.6611104999992676,2,93,0,Novel,no,0
2,1,58,q,0.6988707079999585,1,37,1,Famous,no,1
2,1,59,q,0.8346642500000598,3,135,0,Novel,no,0
2,1,60,p,0.678769584001202,1,25,0,Novel,no,1
2,2,1,q,0.7007636660000571,1,45,1,Famous,no,1
2,2,2,q,0.6241059169988148,1,43,0,Novel,no,0
2,2,3,p,0.7331978750007693,2,105,0,Novel,no,1
2,2,5,p,0.6182465830006549,1,89,0,Novel,no,1
2,2,6,p,0.7603962079992925,3,109,0,Novel,no,1
2,2,7,p,0.6826164169997355,1,53,0,Novel,no,1
2,2,9,q,0.7668807079990074,3,38,1,Famous,no,1
2,2,10,q,0.6921384590004891,3,35,1,Famous,no,1
2,2,11,q,0.7004905829999188,3,50,1,Famous,no,1
2,2,12,q,0.8403457500007789,1,36,1,Famous,no,1
2,2,13,p,0.761125709001135,2,138,0,Novel,no,1
2,2,14,q,0.7647586669991142,1,47,1,Famous,no,1
2,2,15,p,0.8365754579990607,2,152,0,Novel,no,1
2,2,17,p,0.8338439999988623,2,118,0,Novel,no,1
2,2,18,q,0.6337398750001739,3,2,0,Novel,no,0
2,2,19,p,0.5767029170001479,1,82,0,Novel,no,1
2,2,20,p,0.7119275829991238,1,91,0,Novel,no,1
2,2,21,p,0.6190550409992284,1,59,0,Novel,no,1
2,2,22,p,0.6836313339990738,2,115,0,Novel,no,1
2,2,23,q,0.7273438749998604,1,59,1,Famous,no,1
2,2,24,q,0.7660471670005791,1,53,1,Famous,no,1
2,2,25,q,0.6230315419998078,2,52,1,Famous,no,1
2,2,26,q,0.7266066669999418,2,66,0,Novel,no,0
2,2,27,p,0.6687443749997328,3,47,0,Novel,no,1
2,2,28,p,0.6864261660011834,2,123,0,Novel,no,1
2,2,29,p,0.6184061670010124,2,84,0,Novel,no,1
2,2,30,p,0.5781841249990975,3,74,0,Novel,no,1
2,2,31,p,0.6238754169989988,1,28,1,Famous,no,0
2,2,32,p,0.668224957998973,2,97,0,Novel,no,1
2,2,33,q,0.6127614590004669,3,9,1,Famous,no,1
2,2,34,p,0.5850586659998953,1,32,0,Novel,no,1
2,2,35,q,0.6917338340008428,1,60,1,Famous,no,1
2,2,37,q,0.7051165829998354,2,37,1,Famous,no,1
2,2,38,q,0.6909670000004553,3,144,0,Novel,no,0
2,2,39,p,0.6908357079992129,1,29,1,Famous,no,0
2,2,40,q,0.7795730830002867,2,34,1,Famous,no,1
2,2,41,q,0.7051406669997959,1,21,1,Famous,no,1
2,2,42,q,0.77316995900037,3,48,1,Famous,no,1
2,2,43,q,0.637801999999283,1,30,0,Novel,no,0
2,2,44,q,0.7708270840012119,2,31,1,Famous,no,1
2,2,45,q,0.767058833000192,2,69,0,Novel,no,0
2,2,47,p,0.7124766670003737,1,100,0,Novel,no,1
2,2,48,q,0.78412195799865,2,54,1,Famous,no,1
2,2,50,p,0.8366502079989004,1,124,0,Novel,no,1
2,2,51,q,0.7037442500004545,3,51,1,Famous,no,1
2,2,52,p,0.756042791001164,1,129,0,Novel,no,1
2,2,53,p,0.6398558749988297,3,75,0,Novel,no,1
2,2,54,p,0.5980560000007245,3,73,0,Novel,no,1
2,2,55,p,0.4702222910000273,1,58,1,Famous,no,0
2,2,56,q,0.7708390839998174,1,23,1,Famous,no,1
2,2,57,q,0.7090142920005746,1,33,1,Famous,no,1
2,2,58,p,0.6924168750010722,3,20,1,Famous,no,0
2,2,59,q,0.6783985420006502,1,12,1,Famous,no,1
2,2,60,q,0.6940179580014956,3,57,1,Famous,no,1
2,3,1,p,0.6769765419994656,3,101,0,Novel,no,1
2,3,2,p,0.4858491659997526,3,60,0,Novel,no,1
2,3,3,p,0.6932673330011312,2,136,0,Novel,no,1
2,3,4,q,0.6117758330001379,3,34,1,Famous,no,1
2,3,5,p,0.6315749999994296,1,88,0,Novel,no,1
2,3,6,p,0.619953916000668,1,35,1,Famous,no,0
2,3,7,p,0.7375080830006482,2,28,0,Novel,no,1
2,3,8,p,0.5493663329998526,1,31,1,Famous,no,0
2,3,9,q,0.5327262910013815,3,45,1,Famous,no,1
2,3,10,q,0.6880398329994932,3,151,0,Novel,no,0
2,3,11,q,0.6770804170009797,2,61,0,Novel,no,0
2,3,12,p,0.7620784169994295,2,112,0,Novel,no,1
2,3,13,p,0.6833696249996137,2,119,0,Novel,no,1
2,3,14,p,0.6084395420002693,3,108,0,Novel,no,1
2,3,15,q,0.6186606249993929,3,37,1,Famous,no,1
2,3,16,p,0.676784499999485,3,1,0,Novel,no,1
2,3,17,q,0.7015841249994992,3,60,1,Famous,no,1
2,3,18,p,0.8461917920012638,1,52,1,Famous,no,0
2,3,19,p,0.7523747499999445,1,107,0,Novel,no,1
2,3,20,p,0.7570950419994915,3,122,0,Novel,no,1
2,3,21,q,0.6257430839996232,2,9,0,Novel,no,0
2,3,22,p,0.7597654170003807,3,132,0,Novel,no,1
2,3,23,p,0.6302274579993536,3,21,0,Novel,no,1
2,3,24,p,0.7803755420009111,1,45,0,Novel,no,1
2,3,25,q,0.7876584590012499,2,57,1,Famous,no,1
2,3,27,q,0.7080227919996105,2,33,1,Famous,no,1
2,3,28,p,0.8641203329989366,1,10,1,Famous,no,0
2,3,29,q,0.6849340839999059,2,47,1,Famous,no,1
2,3,30,p,0.7224759579985403,1,64,0,Novel,no,1
2,3,31,q,0.841868916999374,1,42,1,Famous,no,1
2,3,32,q,0.7734520000012708,1,38,1,Famous,no,1
2,3,33,q,0.7035376249987166,3,12,1,Famous,no,1
2,3,37,p,0.5405380419997527,1,19,0,Novel,no,1
2,3,38,p,0.5351067089995922,1,83,0,Novel,no,1
2,3,39,q,0.7749269579999236,2,48,1,Famous,no,1
2,3,40,p,0.6292779579998751,2,76,0,Novel,no,1
2,3,41,q,0.8811584169998241,2,53,1,Famous,no,1
2,3,42,q,0.7677060830010305,1,54,1,Famous,no,1
2,3,43,p,0.6329600420012866,3,62,0,Novel,no,1
2,3,44,q,0.7684425420011394,3,29,1,Famous,no,1
2,3,45,p,0.5858153330009372,3,20,0,Novel,no,1
2,3,46,q,0.7729245840000658,1,32,1,Famous,no,1
2,3,47,p,0.552766499999052,1,49,0,Novel,no,1
2,3,48,p,0.7663515000003827,2,39,0,Novel,no,1
2,3,49,q,0.7077141659992776,2,36,1,Famous,no,1
2,3,50,p,0.8269224169998779,1,70,0,Novel,no,1
2,3,51,q,0.765239541999108,1,9,1,Famous,no,1
2,3,52,p,0.6826179590007087,3,125,0,Novel,no,1
2,3,53,q,0.6765627919994586,2,21,1,Famous,no,1
2,3,54,q,0.6969344169992837,1,44,1,Famous,no,1
2,3,55,q,0.7853093329995318,2,20,1,Famous,no,1
2,3,56,q,0.6922222920002241,2,58,1,Famous,no,1
2,3,57,q,0.7093726249986503,1,51,1,Famous,no,1
2,3,58,q,0.7706850829999894,3,59,1,Famous,no,1
2,3,59,q,0.7634360829997604,3,28,1,Famous,no,1
2,3,60,q,0.6230542499997682,2,50,1,Famous,no,1
3,1,1,p,0.8689755000000332,3,5,1,Famous,no,0
3,1,2,p,0.8186657090000153,3,97,0,Novel,no,1
3,1,3,p,0.7697107910003069,1,111,0,Novel,no,1
3,1,6,q,0.7827503339999566,1,3,1,Famous,no,1
3,1,7,p,0.7556770830001369,1,108,0,Novel,no,1
3,1,9,q,0.8294150830001854,2,1,1,Famous,no,1
3,1,12,q,0.8606199999999262,3,14,1,Famous,no,1
3,1,13,q,0.7686450410001271,3,54,1,Famous,no,1
3,1,16,p,0.7015479159999813,1,24,1,Famous,no,0
3,1,17,q,0.7649588750000476,3,41,1,Famous,no,1
3,1,18,q,0.54970291599966,1,45,1,Famous,no,1
3,1,19,p,0.6323951250001301,3,17,0,Novel,no,1
3,1,20,p,0.768680416999814,3,36,1,Famous,no,0
3,1,22,q,0.6189532500002315,2,46,1,Famous,no,1
3,1,23,p,0.5934327919999305,1,80,0,Novel,no,1
3,1,24,q,0.549514457999976,1,33,1,Famous,no,1
3,1,25,p,0.7606613750003817,1,105,0,Novel,no,1
3,1,26,q,0.692076167000323,1,47,1,Famous,no,1
3,1,27,q,0.7016867920001459,1,12,1,Famous,no,1
3,1,28,p,0.6199678329999188,2,78,0,Novel,no,1
3,1,29,p,0.6822335420001764,2,49,0,Novel,no,1
3,1,31,p,0.7456084169998576,3,79,0,Novel,no,1
3,1,32,p,0.7815486659997077,2,23,1,Famous,no,0
3,1,33,p,0.6987546660002408,1,28,1,Famous,no,0
3,1,34,q,0.7235132920000069,1,72,0,Novel,no,0
3,1,35,q,0.6198984170000585,3,1,0,Novel,no,0
3,1,36,p,0.7058431250002286,2,29,1,Famous,no,0
3,1,38,p,0.8382543339998847,2,134,0,Novel,no,1
3,1,39,q,0.7068449170001259,2,38,1,Famous,no,1
3,1,40,p,0.865115957999933,2,26,1,Famous,no,0
3,1,41,q,0.8524310830002833,1,52,1,Famous,no,1
3,1,42,q,0.587112167000214,2,83,0,Novel,no,0
3,1,43,q,0.7751275000000533,1,32,1,Famous,no,1
3,1,44,p,0.8440492499998982,2,140,0,Novel,no,1
3,1,45,q,0.7742308329998195,3,60,1,Famous,no,1
3,1,46,p,0.8152152500001648,3,13,0,Novel,no,1
3,1,49,q,0.788634667000224,1,57,1,Famous,no,1
3,1,50,p,0.783803832999638,2,49,1,Famous,no,0
3,1,52,p,0.6301615839997794,2,47,0,Novel,no,1
3,1,53,q,0.6911232080001355,3,34,1,Famous,no,1
3,1,54,p,0.7635885000004237,2,143,0,Novel,no,1
3,1,55,p,0.7648342089996731,2,142,0,Novel,no,1
3,1,57,q,0.7497941659999015,3,91,0,Novel,no,0
3,1,58,p,0.5585705829998915,3,101,0,Novel,no,1
3,1,59,p,0.6743401670000821,1,21,0,Novel,no,1
3,2,1,q,0.6999702499997511,1,46,1,Famous,no,1
3,2,2,q,0.7006259999998292,1,34,1,Famous,no,1
3,2,3,q,0.5358261669998683,1,54,1,Famous,no,1
3,2,4,p,0.5801652079999258,1,82,0,Novel,no,1
3,2,5,q,0.7784549590001006,1,27,1,Famous,no,1
3,2,6,p,0.7535428339997452,3,129,0,Novel,no,1
3,2,7,q,0.6831848330002686,3,45,1,Famous,no,1
3,2,8,p,0.6222047920000477,2,60,1,Famous,no,0
3,2,9,q,0.6828550420000283,2,47,1,Famous,no,1
3,2,10,q,0.6889349170000969,1,23,1,Famous,no,1
3,2,11,p,0.7611314589998983,2,104,0,Novel,no,1
3,2,12,q,0.6178694159998486,3,29,1,Famous,no,1
3,2,13,q,0.5527251660000729,2,27,0,Novel,no,0
3,2,14,q,0.7803832919998968,1,5,1,Famous,no,1
3,2,15,p,0.6967800409997835,3,12,0,Novel,no,1
3,2,16,q,0.6999523750000662,3,52,1,Famous,no,1
3,2,17,p,0.6773320830002376,2,39,0,Novel,no,1
3,2,18,q,0.8381411670002308,1,112,0,Novel,no,0
3,2,20,q,0.7086945830001241,2,3,1,Famous,no,1
3,2,21,p,0.6263925000002928,3,87,0,Novel,no,1
3,2,22,q,0.6276376249998066,2,41,1,Famous,no,1
3,2,23,q,0.7705695829999968,3,49,1,Famous,no,1
3,2,24,p,0.6871371659999568,2,139,0,Novel,no,1
3,2,25,q,0.6965135420000479,1,35,1,Famous,no,1
3,2,27,p,0.6819346669999504,3,136,0,Novel,no,1
3,2,28,q,0.6290739589999248,2,29,0,Novel,no,0
3,2,29,q,0.5769749999999476,3,90,0,Novel,no,0
3,2,30,q,0.7005384170001889,3,59,1,Famous,no,1
3,2,31,p,0.677701375000197,3,89,0,Novel,no,1
3,2,34,p,0.6882468750000044,2,10,0,Novel,no,1
3,2,35,q,0.6961257080001815,1,50,1,Famous,no,1
3,2,36,p,0.6374499159996958,2,41,0,Novel,no,1
3,2,37,q,0.8625408329999118,2,42,1,Famous,no,1
3,2,38,p,0.6810770409997531,3,51,0,Novel,no,1
3,2,39,p,0.7976398750001863,2,18,0,Novel,no,1
3,2,40,p,0.6913012500003788,3,151,0,Novel,no,1
3,2,41,q,0.6300072080002792,3,33,1,Famous,no,1
3,2,42,q,0.7697084999999788,3,28,1,Famous,no,1
3,2,43,p,0.7724108329998671,3,52,0,Novel,no,1
3,2,45,p,0.7881627500000832,3,44,0,Novel,no,1
3,2,46,q,0.7041494589998365,2,32,1,Famous,no,1
3,2,47,q,0.6796329160001733,2,14,1,Famous,no,1
3,2,48,q,0.6242644160001873,2,36,1,Famous,no,1
3,2,49,p,0.7694824999998673,2,66,0,Novel,no,1
3,2,50,p,0.8202917499997966,1,57,0,Novel,no,1
3,2,52,q,0.7603407500000685,1,145,0,Novel,no,0
3,2,53,q,0.6144089999997959,3,38,1,Famous,no,1
3,2,54,q,0.6257915829996819,2,57,1,Famous,no,1
3,2,55,q,0.7042644580001252,3,12,1,Famous,no,1
3,2,56,p,0.6823565000004237,2,147,0,Novel,no,1
3,2,57,p,0.7402727089997825,1,109,0,Novel,no,1
3,2,58,p,0.6258773340000516,2,59,0,Novel,no,1
3,2,60,q,0.5917213339998852,2,2,0,Novel,no,0
3,3,1,q,0.6956035000002885,2,12,1,Famous,no,1
3,3,2,q,0.7764707080000335,2,27,1,Famous,no,1
3,3,4,q,0.6216361249998954,1,14,1,Famous,no,1
3,3,5,q,0.5716301250004108,2,100,0,Novel,no,0
3,3,6,q,0.4339455829999679,2,56,0,Novel,no,0
3,3,7,q,0.7028901660000884,1,49,1,Famous,no,1
3,3,8,q,0.6133039590004046,1,48,1,Famous,no,1
3,3,9,q,0.7002294579997397,3,3,1,Famous,no,1
3,3,10,q,0.8672362919996885,2,50,1,Famous,no,1
3,3,11,p,0.763593375000255,3,150,0,Novel,no,1
3,3,12,q,0.5466802910000297,2,88,0,Novel,no,0
3,3,13,q,0.6820433749999211,2,35,1,Famous,no,1
3,3,14,q,0.7066479579998486,3,32,1,Famous,no,1
3,3,15,q,0.7526442919997862,3,23,1,Famous,no,1
3,3,16,q,0.7014722499998243,3,57,1,Famous,no,1
3,3,17,p,0.7599747909998769,3,106,0,Novel,no,1
3,3,18,p,0.6902582920001805,3,123,0,Novel,no,1
3,3,19,q,0.7077000830004181,2,33,1,Famous,no,1
3,3,21,p,0.8253065829999287,1,33,0,Novel,no,1
3,3,22,q,0.7018588329997328,3,24,1,Famous,no,1
3,3,23,q,0.6920349170000009,3,26,1,Famous,no,1
3,3,24,q,0.7815451669998765,3,42,1,Famous,no,1
3,3,25,q,0.6176042080001025,1,41,1,Famous,no,1
3,3,26,p,0.6889007079998919,1,20,0,Novel,no,1
3,3,27,q,0.6256670420002592,2,52,1,Famous,no,1
3,3,28,q,0.7690430409998044,1,29,1,Famous,no,1
3,3,29,q,0.7737142920000224,2,5,1,Famous,no,1
3,3,30,q,0.6887173340001027,1,60,1,Famous,no,1
3,3,31,p,0.6461663750001208,1,30,0,Novel,no,1
3,3,32,q,0.6247368750000533,1,38,1,Famous,no,1
3,3,33,p,0.6832722499998454,2,126,0,Novel,no,1
3,3,34,q,0.7042105420000553,2,59,1,Famous,no,1
3,3,35,q,0.73992058299973,3,9,0,Novel,no,0
3,3,36,q,0.6758409589997427,3,47,1,Famous,no,1
3,3,37,p,0.5888598749997982,1,37,0,Novel,no,1
3,3,38,p,0.7630030830000578,2,153,0,Novel,no,1
3,3,39,p,0.6003607920001741,3,46,1,Famous,no,0
3,3,40,p,0.6189466249998077,1,36,1,Famous,no,0
3,3,41,p,0.7584718749999411,3,110,0,Novel,no,1
3,3,42,q,0.6211769579999782,2,34,1,Famous,no,1
3,3,43,q,0.5394887090001248,2,19,0,Novel,no,0
3,3,44,p,0.688304374999916,1,1,1,Famous,no,0
3,3,46,q,0.7023772500001542,2,28,1,Famous,no,1
3,3,47,q,0.5428114579999601,2,45,1,Famous,no,1
3,3,48,p,0.6270410000001903,3,74,0,Novel,no,1
3,3,49,p,0.6307974169999397,3,76,0,Novel,no,1
3,3,50,p,0.7629714579998108,2,115,0,Novel,no,1
3,3,51,p,0.7589962500001093,3,138,0,Novel,no,1
3,3,52,p,0.6511896250003701,2,64,0,Novel,no,1
3,3,54,p,0.6330219579999721,1,61,0,Novel,no,1
3,3,55,p,0.7340692500001751,3,36,0,Novel,no,1
3,3,56,p,0.687101917000291,3,144,0,Novel,no,1
3,3,57,p,0.6129066670000611,1,119,0,Novel,no,1
3,3,58,p,0.49047350000000733,1,84,0,Novel,no,1
3,3,59,p,0.5460496250002507,2,67,0,Novel,no,1
3,3,60,p,0.5915209169997979,3,42,0,Novel,no,1
4,1,1,q,0.7583395000001474,2,35,1,Famous,no,1
4,1,2,q,0.8233133749999979,2,1,1,Famous,no,1
4,1,3,q,0.7063999589990999,1,33,1,Famous,no,1
4,1,4,p,0.8465749159986444,1,28,0,Novel,no,1
4,1,6,p,0.6031814159996429,3,42,1,Famous,no,0
4,1,7,p,0.6089535829996748,2,141,0,Novel,no,1
4,1,8,q,0.6210353339993162,2,37,1,Famous,no,1
4,1,9,p,0.7798577079993265,1,17,1,Famous,no,0
4,1,10,p,0.775614250000217,1,75,0,Novel,no,1
4,1,11,q,0.6998502919996099,2,31,1,Famous,no,1
4,1,12,q,0.7800777080010448,3,5,1,Famous,no,1
4,1,13,p,0.7649080410010356,1,104,0,Novel,no,1
4,1,14,q,0.6592850420001923,1,59,1,Famous,no,1
4,1,15,p,0.6280582920007873,2,26,1,Famous,no,0
4,1,16,p,0.8432045000008657,2,151,0,Novel,no,1
4,1,18,q,0.8736641249997774,2,50,1,Famous,no,1
4,1,19,q,0.8590060830010771,1,34,1,Famous,no,1
4,1,20,p,0.7633067080005276,1,150,0,Novel,no,1
4,1,21,p,0.8322172920015873,3,125,0,Novel,no,1
4,1,22,q,0.7696535420000146,3,38,1,Famous,no,1
4,1,23,p,0.6909774169998855,1,111,0,Novel,no,1
4,1,24,p,0.778745916999469,1,6,1,Famous,no,0
4,1,25,p,0.6416794169999775,3,73,0,Novel,no,1
4,1,26,p,0.5313797500002693,2,72,0,Novel,no,1
4,1,27,p,0.5678116670005693,1,17,0,Novel,no,1
4,1,28,p,0.7720712919999642,3,36,1,Famous,no,0
4,1,29,q,0.709554166000089,2,3,1,Famous,no,1
4,1,30,p,0.8624395829992864,2,21,1,Famous,no,0
4,1,31,q,0.7737774999986868,3,52,1,Famous,no,1
4,1,32,p,0.8379317500002799,3,124,0,Novel,no,1
4,1,34,q,0.6261365829996066,3,12,1,Famous,no,1
4,1,35,p,0.7703250000013213,3,84,0,Novel,no,1
4,1,36,q,0.7171075419992121,2,57,1,Famous,no,1
4,1,37,q,0.6339867910010071,2,27,1,Famous,no,1
4,1,38,q,0.751699833001112,3,23,0,Novel,no,0
4,1,39,q,0.7119410409995908,1,45,1,Famous,no,1
4,1,40,q,0.6956761250003183,1,41,1,Famous,no,1
4,1,41,p,0.774570917001256,1,32,1,Famous,no,0
4,1,42,p,0.631526417000714,3,92,0,Novel,no,1
4,1,43,q,0.673318916999051,1,61,0,Novel,no,0
4,1,44,p,0.7768736660000286,1,94,0,Novel,no,1
4,1,45,q,0.8585895830001391,1,23,1,Famous,no,1
4,1,46,p,0.6246979579991603,2,88,0,Novel,no,1
4,1,47,q,0.8614227500002016,2,25,1,Famous,no,1
4,1,48,q,0.7158709169998474,2,28,1,Famous,no,1
4,1,49,p,0.7768355000007432,1,4,1,Famous,no,0
4,1,50,p,0.7241264999993291,2,25,0,Novel,no,1
4,1,51,p,0.8351890840003762,1,106,0,Novel,no,1
4,1,52,p,0.6769387499989534,3,77,0,Novel,no,1
4,1,53,p,0.6675945840015629,2,29,0,Novel,no,1
4,1,54,p,0.7539813749990572,3,59,0,Novel,no,1
4,1,55,p,0.6895319580016803,3,153,0,Novel,no,1
4,1,56,p,0.7053590830000758,3,41,0,Novel,no,1
4,1,57,p,0.6900072500011447,3,83,0,Novel,no,1
4,1,58,p,0.6836395000009361,2,43,0,Novel,no,1
4,1,59,p,0.8269049170012295,3,36,0,Novel,no,1
4,2,1,q,0.7782833340006619,2,45,1,Famous,no,1
4,2,2,p,0.6314144580010179,2,97,0,Novel,no,1
4,2,3,q,0.8627399589986453,1,28,1,Famous,no,1
4,2,5,p,0.6247190829999454,1,78,0,Novel,no,1
4,2,6,p,0.6898255000014615,3,41,1,Famous,no,0
4,2,7,p,0.6243062499997905,3,51,0,Novel,no,1
4,2,8,p,0.5752808750003169,1,79,0,Novel,no,1
4,2,9,q,0.7026580830006424,1,5,1,Famous,no,1
4,2,10,q,0.7016644999985147,2,12,1,Famous,no,1
4,2,11,q,0.8457300840000244,1,50,1,Famous,no,1
4,2,13,q,0.6963100409993785,3,31,1,Famous,no,1
4,2,14,q,0.8509055409995199,1,26,1,Famous,no,1
4,2,15,q,0.6204996659998869,1,52,1,Famous,no,1
4,2,16,p,0.7554724170004192,3,140,0,Novel,no,1
4,2,17,q,0.6802623749990744,3,147,0,Novel,no,0
4,2,18,q,0.7063450000005105,1,51,1,Famous,no,1
4,2,19,p,0.7590156250007567,2,126,0,Novel,no,1
4,2,20,p,0.7607065840002178,2,4,1,Famous,no,0
4,2,21,p,0.7396471660013049,2,44,0,Novel,no,1
4,2,22,p,0.7896207499998127,3,21,1,Famous,no,0
4,2,23,q,0.7763447079996695,3,3,1,Famous,no,1
4,2,24,p,0.7582685830002447,3,143,0,Novel,no,1
4,2,25,q,0.7845265830001154,2,33,1,Famous,no,1
4,2,26,q,0.6961949169999571,3,29,1,Famous,no,1
4,2,27,q,0.844280917001015,1,36,1,Famous,no,1
4,2,29,q,0.6257197919985629,3,32,1,Famous,no,1
4,2,30,q,0.6732573339995724,2,95,0,Novel,no,0
4,2,31,p,0.838594999999259,1,142,0,Novel,no,1
4,2,33,p,0.701211958001295,2,42,1,Famous,no,0
4,2,34,p,0.7231532500009052,3,18,0,Novel,no,1
4,2,35,p,0.7555212499992194,2,6,1,Famous,no,0
4,2,36,q,0.70252329200047825,2,38,1,Famous,no,1
4,2,37,q,0.6897242080012802,3,27,1,Famous,no,1
4,2,38,p,0.6795405829998344,1,39,0,Novel,no,1
4,2,39,p,0.7640425410008902,2,112,0,Novel,no,1
4,2,40,q,0.7036259169999539,2,59,1,Famous,no,1
4,2,41,q,0.6771694170001865,3,23,1,Famous,no,1
4,2,42,q,0.7698952920000011,3,25,1,Famous,no,1
4,2,43,p,0.6924773749997257,3,101,0,Novel,no,1
4,2,44,q,0.8459775000010268,3,35,1,Famous,no,1
4,2,45,q,0.6163938329991652,2,17,1,Famous,no,1
4,2,46,p,0.6936768340001436,3,38,0,Novel,no,1
4,2,47,q,0.7692644170001586,3,34,1,Famous,no,1
4,2,48,p,0.6735665000014706,1,47,0,Novel,no,1
4,2,49,q,0.7102994580000086,3,1,1,Famous,no,1
4,2,50,q,0.7796990410006401,3,37,1,Famous,no,1
4,2,51,p,0.7267769999998563,1,70,0,Novel,no,1
4,2,52,p,0.8157152920011868,2,68,0,Novel,no,1
4,2,53,p,0.6894583339999372,3,116,0,Novel,no,1
4,2,54,p,0.6246901249996881,3,2,0,Novel,no,1
4,2,55,p,0.6155576670007576,2,108,0,Novel,no,1
4,2,56,p,0.7612401669994142,3,107,0,Novel,no,1
4,2,57,p,0.5611376249999012,1,30,0,Novel,no,1
4,2,58,p,0.5900204999998095,2,27,0,Novel,no,1
4,2,59,p,0.5980645830004505,3,69,0,Novel,no,1
4,2,60,p,0.678928541001369,1,50,0,Novel,no,1
4,3,1,p,0.7888988340000651,1,21,1,Famous,no,0
4,3,2,p,0.7646581669996522,3,45,1,Famous,no,0
4,3,4,p,0.7618176249998214,1,42,1,Famous,no,0
4,3,5,q,0.6233874159988773,2,32,1,Famous,no,1
4,3,7,p,0.8369513749985344,3,146,0,Novel,no,1
4,3,8,p,0.6861063329997705,1,135,0,Novel,no,1
4,3,9,p,0.6367453329985437,3,76,0,Novel,no,1
4,3,10,q,0.7040992919992277,2,29,1,Famous,no,1
4,3,11,q,0.7041586659997847,3,50,1,Famous,no,1
4,3,12,p,0.6870647089999693,1,118,0,Novel,no,1
4,3,13,p,0.6058186249993014,2,22,0,Novel,no,1
4,3,14,p,0.6447314580000238,1,71,0,Novel,no,1
4,3,15,q,0.710407208000106,2,36,1,Famous,no,1
4,3,16,p,0.6929436659993371,1,119,0,Novel,no,1
4,3,17,q,0.7864605830000073,3,33,1,Famous,no,1
4,3,18,q,0.7102202079986455,1,12,1,Famous,no,1
4,3,19,q,0.6243628330012143,2,34,1,Famous,no,1
4,3,20,p,0.6325994999988325,1,89,0,Novel,no,1
4,3,21,p,0.6049333339997247,3,20,0,Novel,no,1
4,3,22,p,0.6873415000009118,2,134,0,Novel,no,1
4,3,23,q,0.6254984580009477,2,52,1,Famous,no,1
4,3,24,p,0.5845695000007254,3,87,0,Novel,no,1
4,3,25,q,0.6956280829999741,2,51,1,Famous,no,1
4,3,26,q,0.786184915999911,3,17,1,Famous,no,1
4,3,27,q,0.6183728750002047,3,59,1,Famous,no,1
4,3,28,p,0.6976897919994371,2,12,0,Novel,no,1
4,3,29,p,0.5748006660014653,3,32,0,Novel,no,1
4,3,30,q,0.7847904159989412,2,23,1,Famous,no,1
4,3,31,p,0.6494770410008641,1,16,0,Novel,no,1
4,3,32,p,0.6854208750010002,1,113,0,Novel,no,1
4,3,33,q,0.7037389170000097,2,41,1,Famous,no,1
4,3,34,p,0.7578517500005546,3,144,0,Novel,no,1
4,3,35,q,0.7015681670000049,1,27,1,Famous,no,1
4,3,36,p,0.7311813340002118,3,11,0,Novel,no,1
4,3,37,q,0.702896333001263,3,28,1,Famous,no,1
4,3,39,q,0.6109594170011405,1,1,1,Famous,no,1
4,3,40,p,0.7571332079987769,1,130,0,Novel,no,1
4,3,42,p,0.6466238339999109,1,56,0,Novel,no,1
4,3,43,p,0.6213051670001732,1,81,0,Novel,no,1
4,3,44,q,0.6982785000000149,3,26,1,Famous,no,1
4,3,45,p,0.6983861669996259,3,57,1,Famous,no,0
4,3,46,p,0.8368332919999375,2,145,0,Novel,no,1
4,3,47,p,0.5844466250000551,2,26,0,Novel,no,1
4,3,48,p,0.852527041999565,3,4,1,Famous,no,0
4,3,49,p,0.5274263330011308,2,37,0,Novel,no,1
4,3,50,q,0.6143345420005062,1,25,1,Famous,no,1
4,3,51,q,0.6001250419994903,2,45,0,Novel,no,0
4,3,52,p,0.5301811669996823,1,64,0,Novel,no,1
4,3,53,p,0.489380709001125,1,21,0,Novel,no,1
4,3,54,q,0.7609641250001005,1,31,1,Famous,no,1
4,3,55,p,0.549024374999135,1,19,0,Novel,no,1
4,3,56,p,0.6211064590006572,1,90,0,Novel,no,1
4,3,58,q,0.6219892919998529,2,5,1,Famous,no,1
4,3,59,q,0.5481058750010561,1,3,1,Famous,no,1
4,3,60,q,0.6995002500007104,1,38,1,Famous,no,1
5,1,1,p,0.48892766700009815,1,88,0,Novel,no,1
5,1,2,p,0.5549489170007291,2,21,1,Famous,no,0
5,1,3,p,0.6942589999998745,3,45,1,Famous,no,0
5,1,4,p,0.6103002079998987,3,9,1,Famous,no,0
5,1,5,p,0.6878588750005292,2,47,0,Novel,no,1
5,1,6,q,0.6194555000001856,1,48,1,Famous,no,1
5,1,7,q,0.624213167000562,1,52,1,Famous,no,1
5,1,8,q,0.6254098329991393,2,51,1,Famous,no,1
5,1,9,p,0.5559887079998589,3,28,0,Novel,no,1
5,1,10,p,0.6929159999999683,1,131,0,Novel,no,1
5,1,11,q,0.7714113330002874,1,54,1,Famous,no,1
5,1,12,p,0.5487582499990822,1,64,0,Novel,no,1
5,1,13,q,0.7011985419994744,2,46,1,Famous,no,1
5,1,14,p,0.7243640000015148,3,7,0,Novel,no,1
5,1,15,p,0.6744643749989336,3,23,1,Famous,no,0
5,1,16,p,0.6942832089989679,1,57,0,Novel,no,1
5,1,17,p,0.7692405830002826,3,27,1,Famous,no,0
5,1,18,p,0.593770208000933,3,102,0,Novel,no,1
5,1,19,q,0.5755151249995833,2,41,0,Novel,no,0
5,1,20,p,0.5885337919989979,3,30,0,Novel,no,1
5,1,22,p,0.6298655000009603,2,16,0,Novel,no,1
5,1,23,q,0.790910707999501,2,4,1,Famous,no,1
5,1,24,p,0.6870765830008168,1,119,0,Novel,no,1
5,1,25,p,0.7020064999996976,3,11,1,Famous,no,0
5,1,26,p,0.8449021250016813,2,148,0,Novel,no,1
5,1,27,p,0.7780063329992117,1,39,1,Famous,no,0
5,1,28,q,0.6305537919997732,1,12,1,Famous,no,1
5,1,29,q,0.7867060420012422,3,14,1,Famous,no,1
5,1,30,p,0.7334474999988743,2,10,0,Novel,no,1
5,1,31,q,0.7813575000000128,3,3,1,Famous,no,1
5,1,32,p,0.6883956669989857,2,140,0,Novel,no,1
5,1,33,q,0.7655766660009249,3,8,1,Famous,no,1
5,1,34,p,0.6847801659987454,1,134,0,Novel,no,1
5,1,35,p,0.605727541998931,2,115,0,Novel,no,1
5,1,36,p,0.7591316670004744,2,109,0,Novel,no,1
5,1,37,p,0.6214232920010545,1,56,1,Famous,no,0
5,1,38,q,0.77992599999925,1,35,1,Famous,no,1
5,1,39,p,0.5553314170010708,2,72,0,Novel,no,1
5,1,40,p,0.5305670830002782,2,78,0,Novel,no,1
5,1,41,p,0.6287787080000271,2,37,1,Famous,no,0
5,1,42,p,0.7377837500007445,2,28,1,Famous,no,0
5,1,43,q,0.6011712920007994,2,1,1,Famous,no,1
5,1,44,q,0.6226924160000635,1,34,1,Famous,no,1
5,1,45,p,0.7010307910004485,2,26,1,Famous,no,0
5,1,46,q,0.6161625420008932,1,50,1,Famous,no,1
5,1,47,q,0.6242786670009082,3,32,1,Famous,no,1
5,1,48,q,0.7806676250002056,2,29,1,Famous,no,1
5,1,49,q,0.6268117079998774,3,5,1,Famous,no,1
5,1,50,p,0.8348692080016917,1,107,0,Novel,no,1
5,1,51,q,0.7712918339984753,3,31,1,Famous,no,1
5,1,52,p,0.8404995419987245,2,153,0,Novel,no,1
5,1,53,p,0.6840327079989947,1,141,0,Novel,no,1
5,1,54,p,0.6972315830007574,1,26,0,Novel,no,1
5,1,55,p,0.6388788340009341,3,22,0,Novel,no,1
5,1,56,p,0.5972329169999284,3,4,0,Novel,no,1
5,1,57,p,0.5281250419993739,2,52,0,Novel,no,1
5,1,58,p,0.6290315000005648,3,11,0,Novel,no,1
5,1,59,p,0.6451422079990152,1,12,0,Novel,no,1
5,1,60,p,0.530045292000068,2,29,0,Novel,no,1
5,2,1,p,0.6870810000000347,2,111,0,Novel,no,1
5,2,2,q,0.5377865829996153,3,13,0,Novel,no,0
5,2,3,p,0.5378652090003015,1,21,0,Novel,no,1
5,2,4,q,0.8486912920016039,1,9,1,Famous,no,1
5,2,5,p,0.7664147909999883,1,36,1,Famous,no,0
5,2,6,p,0.6805619579990889,1,128,0,Novel,no,1
5,2,7,p,0.7331199170002947,3,51,0,Novel,no,1
5,2,8,p,0.6284490409998398,2,23,1,Famous,no,0
5,2,9,p,0.6522927499991056,2,20,0,Novel,no,1
5,2,10,q,0.6958405000004859,3,35,1,Famous,no,1
5,2,11,p,0.7872000839997781,1,36,0,Novel,no,1
5,2,12,p,0.7061498330003815,1,14,1,Famous,no,0
5,2,13,p,0.697212416000184,1,8,1,Famous,no,0
5,2,14,q,0.8686143329996412,1,21,1,Famous,no,1
5,2,15,q,0.6978024580002966,1,32,1,Famous,no,1
5,2,16,p,0.6876321250001638,1,114,0,Novel,no,1
5,2,17,q,0.6959167500008334,3,52,1,Famous,no,1
5,2,18,p,0.6821734580007615,3,139,0,Novel,no,1
5,2,19,p,0.7735981670011824,2,56,1,Famous,no,0
5,2,20,p,0.8351388749997568,2,113,0,Novel,no,1
5,2,22,q,0.859851916999105,3,39,1,Famous,no,1
5,2,23,p,0.6408188340010383,3,23,0,Novel,no,1
5,2,24,p,0.7839876670004742,3,50,1,Famous,no,0
5,2,25,q,0.7835722500003612,2,54,1,Famous,no,1
5,2,26,q,0.6262014579988318,1,51,1,Famous,no,1
5,2,27,p,0.6070221250010945,3,49,0,Novel,no,1
5,2,28,p,0.6088160409999546,1,117,0,Novel,no,1
5,2,29,q,0.780138292000629,2,12,1,Famous,no,1
5,2,30,p,0.726282416999311,3,14,0,Novel,no,1
5,2,31,p,0.6072068329995091,1,126,0,Novel,no,1
5,2,32,q,0.770574416999807,2,31,1,Famous,no,1
5,2,33,q,0.7801357500011363,2,34,1,Famous,no,1
5,2,35,q,0.620149708000099,1,5,1,Famous,no,1
5,2,36,p,0.6955293749997509,1,56,0,Novel,no,1
5,2,37,p,0.7113415419989906,2,70,0,Novel,no,1
5,2,39,p,0.6846782909997273,1,37,0,Novel,no,1
5,2,40,q,0.7809024580001278,1,3,1,Famous,no,1
5,2,41,p,0.6369597079992673,1,71,0,Novel,no,1
5,2,43,p,0.6348222919987165,3,75,0,Novel,no,1
5,2,44,q,0.7676829579995683,1,37,1,Famous,no,1
5,2,45,p,0.6451455420010461,3,73,0,Novel,no,1
5,2,46,p,0.611292958001286,2,116,0,Novel,no,1
5,2,48,p,0.6093777909991331,2,124,0,Novel,no,1
5,2,49,p,0.6239183750003576,2,45,1,Famous,no,0
5,2,50,p,0.6896082079983898,1,77,0,Novel,no,1
5,2,51,p,0.632077999998728,1,32,0,Novel,no,1
5,2,52,q,0.7611059169994405,1,53,0,Novel,no,0
5,2,53,p,0.5355899999995017,1,29,1,Famous,no,0
5,2,54,p,0.6850609579996672,1,91,0,Novel,no,1
5,2,55,p,0.6173151670009247,2,95,0,Novel,no,1
5,2,56,p,0.6925000000010186,1,1,1,Famous,no,0
5,2,57,q,0.6160790409994661,2,48,1,Famous,no,1
5,2,58,q,0.62493912500031,3,46,1,Famous,no,1
5,2,59,p,0.7784546250004496,1,27,1,Famous,no,0
5,2,60,q,0.7653063330017176,3,28,1,Famous,no,1
5,3,1,p,0.670490583001083,2,59,0,Novel,no,1
5,3,2,q,0.6222471249984665,3,1,1,Famous,no,1
5,3,3,q,0.7060823329993582,2,32,1,Famous,no,1
5,3,4,p,0.6754713329992228,2,74,0,Novel,no,1
5,3,5,p,0.7562914160007495,2,105,0,Novel,no,1
5,3,6,p,0.7566630000001169,1,106,0,Novel,no,1
5,3,7,p,0.5753801250011747,2,62,0,Novel,no,1
5,3,8,p,0.5806209580005088,2,25,0,Novel,no,1
5,3,9,p,0.673594415999105,2,42,0,Novel,no,1
5,3,10,q,0.7016751669998484,3,51,1,Famous,no,1
5,3,11,p,0.8247620000001916,2,93,0,Novel,no,1
5,3,12,p,0.6958180000001448,3,4,1,Famous,no,0
5,3,13,p,0.5902968329992291,3,81,0,Novel,no,1
5,3,14,p,0.7246235000002343,1,80,0,Novel,no,1
5,3,15,q,0.7065346660001524,2,52,1,Famous,no,1
5,3,16,p,0.592876165999769,2,101,0,Novel,no,1
5,3,17,p,0.7065222909986915,3,21,1,Famous,no,0
5,3,18,p,0.5987211250012479,3,33,0,Novel,no,1
5,3,19,p,0.686427000000549,3,150,0,Novel,no,1
5,3,20,p,0.7621092080007656,1,38,0,Novel,no,1
5,3,21,q,0.7791556250012945,2,39,1,Famous,no,1
5,3,22,p,0.6826059159993747,2,138,0,Novel,no,1
5,3,23,q,0.68804070799888,1,31,1,Famous,no,1
5,3,24,p,0.6242341670003952,2,17,0,Novel,no,1
5,3,25,q,0.6959601670005213,3,48,1,Famous,no,1
5,3,26,p,0.6184442089997901,1,28,1,Famous,no,0
5,3,27,q,0.6938826669993432,2,8,1,Famous,no,1
5,3,28,q,0.698194999999032,2,3,1,Famous,no,1
5,3,29,q,0.7022427920001064,2,27,1,Famous,no,1
5,3,30,p,0.834641166999063,1,144,0,Novel,no,1
5,3,31,q,0.7047281669983931,2,50,1,Famous,no,1
5,3,32,q,0.8423130000010133,3,34,1,Famous,no,1
5,3,33,q,0.7046480829994834,1,45,1,Famous,no,1
5,3,34,q,0.6944397499992192,3,26,1,Famous,no,1
5,3,35,p,0.5942751660004433,3,60,0,Novel,no,1
5,3,36,q,0.6335564999990311,3,12,1,Famous,no,1
5,3,37,q,0.77390829199976,2,9,1,Famous,no,1
5,3,38,q,0.69652804199904494,1,23,1,Famous,no,1
5,3,39,q,0.6028626249990339,2,35,1,Famous,no,1
5,3,40,q,0.7741693340012716,1,11,1,Famous,no,1
5,3,41,p,0.7200330000014219,1,92,0,Novel,no,1
5,3,42,q,0.7494664169989846,3,54,1,Famous,no,1
5,3,43,p,0.6825719579992438,2,143,0,Novel,no,1
5,3,44,q,0.8457312080008705,3,29,1,Famous,no,1
5,3,45,q,0.8491816250007105,1,46,1,Famous,no,1
5,3,46,p,0.5313642500004789,3,79,0,Novel,no,1
5,3,48,p,0.6839566669987107,3,108,0,Novel,no,1
5,3,49,p,0.7113009999993665,3,18,0,Novel,no,1
5,3,50,q,0.69696841699988,2,5,1,Famous,no,1
5,3,51,p,0.6520287080002163,1,45,0,Novel,no,1
5,3,54,q,0.7601951670003473,3,110,0,Novel,no,0
5,3,55,p,0.7359214169991901,1,44,0,Novel,no,1
5,3,56,q,0.7819378330004838,3,37,1,Famous,no,1
5,3,57,p,0.5845945830005803,1,90,0,Novel,no,1
5,3,58,p,0.6869957500002783,1,142,0,Novel,no,1
5,3,60,p,0.6804728329989302,2,129,0,Novel,no,1
6,1,1,q,0.6169425829993997,3,31,1,Famous,no,1
6,1,2,q,0.6985337090009125,3,56,1,Famous,no,1
6,1,3,q,0.6873172079995129,1,1,1,Famous,no,1
6,1,4,p,0.73628437500156,3,38,0,Novel,no,1
6,1,5,q,0.6268304160003026,2,34,1,Famous,no,1
6,1,6,q,0.7631558330012922,2,142,0,Novel,no,0
6,1,7,p,0.8320627909997711,3,27,0,Novel,no,1
6,1,8,q,0.7743322080004873,1,53,1,Famous,no,1
6,1,10,q,0.8416775839996262,1,47,1,Famous,no,1
6,1,11,q,0.6956264580003335,3,48,1,Famous,no,1
6,1,12,q,0.7667425420004292,1,36,1,Famous,no,1
6,1,13,q,0.7004346670000814,3,21,1,Famous,no,1
6,1,14,q,0.8558454579997488,2,38,1,Famous,no,1
6,1,16,p,0.8348162079983013,2,108,0,Novel,no,1
6,1,17,p,0.8280845839999529,3,151,0,Novel,no,1
6,1,18,p,0.7560068749990023,1,42,1,Famous,no,0
6,1,21,p,0.6795309580011235,3,37,0,Novel,no,1
6,1,22,q,0.7631167090003146,1,60,1,Famous,no,1
6,1,23,p,0.6295230000014271,2,23,0,Novel,no,1
6,1,24,p,0.8489521249994141,3,41,1,Famous,no,0
6,1,25,p,0.6423085419992276,1,89,0,Novel,no,1
6,1,26,p,0.5498305830005847,1,76,0,Novel,no,1
6,1,27,p,0.6258520829996996,2,59,1,Famous,no,0
6,1,29,q,0.6242377500002476,2,39,1,Famous,no,1
6,1,30,q,0.7050518750002084,1,45,1,Famous,no,1
6,1,31,p,0.7711060000001453,3,28,1,Famous,no,0
6,1,32,q,0.771458375000293,1,35,1,Famous,no,1
6,1,33,q,0.5049525000013091,1,92,0,Novel,no,0
6,1,35,p,0.7529803750003339,1,115,0,Novel,no,1
6,1,36,p,0.5896167909995711,1,101,0,Novel,no,1
6,1,37,q,0.7021835420000571,3,24,1,Famous,no,1
6,1,38,q,0.7667429580014868,1,20,1,Famous,no,1
6,1,39,p,0.6918882079989999,2,20,0,Novel,no,1
6,1,40,q,0.7789097500008211,3,46,1,Famous,no,1
6,1,41,q,0.7001247919997695,2,54,1,Famous,no,1
6,1,42,q,0.6966260410008545,2,32,1,Famous,no,1
6,1,43,p,0.756648791999396,1,124,0,Novel,no,1
6,1,45,p,0.6327583330003108,1,102,0,Novel,no,1
6,1,46,p,0.5464142500004527,1,16,0,Novel,no,1
6,1,47,p,0.6885244999994029,1,122,0,Novel,no,1
6,1,48,q,0.7817070420005621,2,12,1,Famous,no,1
6,1,49,q,0.7807164999994711,2,100,0,Novel,no,0
6,1,51,q,0.7806914579996374,2,23,1,Famous,no,1
6,1,52,q,0.6975652500004799,3,4,0,Novel,no,0
6,1,53,p,0.7647060839990445,1,139,0,Novel,no,1
6,1,54,p,0.8265732919990114,1,21,0,Novel,no,1
6,1,55,q,0.5814805000009073,3,51,0,Novel,no,0
6,1,56,p,0.685592292000365,3,104,0,Novel,no,1
6,1,57,p,0.5931140409993532,3,11,0,Novel,no,1
6,1,58,p,0.4875327079989802,1,26,0,Novel,no,1
6,1,59,p,0.6081075420006528,2,112,0,Novel,no,1
6,1,60,p,0.5841292919994885,1,87,0,Novel,no,1
6,2,1,p,0.6770138339998084,3,80,0,Novel,no,1
6,2,2,q,0.7831764170005044,3,12,1,Famous,no,1
6,2,3,q,0.7762462080008845,3,39,1,Famous,no,1
6,2,4,q,0.5068672079996759,3,39,0,Novel,no,0
6,2,5,p,0.7255916659996728,3,52,0,Novel,no,1
6,2,6,p,0.7000066669988882,1,28,1,Famous,no,0
6,2,7,q,0.6139569580009265,3,35,1,Famous,no,1
6,2,8,p,0.6386690830004227,1,32,0,Novel,no,1
6,2,9,q,0.6731507920012518,2,95,0,Novel,no,0
6,2,10,p,0.7659308750007767,2,84,0,Novel,no,1
6,2,11,p,0.6260620829998516,3,68,0,Novel,no,1
6,2,12,q,0.8269107500000246,3,23,1,Famous,no,1
6,2,13,q,0.6977480000005016,2,52,1,Famous,no,1
6,2,14,p,0.7549872500003403,3,125,0,Novel,no,1
6,2,16,p,0.7595493750013702,2,116,0,Novel,no,1
6,2,17,p,0.7462079160013673,2,67,0,Novel,no,1
6,2,18,q,0.8590879999992467,1,24,1,Famous,no,1
6,2,19,p,0.6561549580001156,1,59,1,Famous,no,0
6,2,20,p,0.7614105829998152,2,130,0,Novel,no,1
6,2,23,q,0.7762188750002679,1,58,1,Famous,no,1
6,2,24,p,0.6874280410011124,2,56,0,Novel,no,1
6,2,25,p,0.6171582919996581,2,73,0,Novel,no,1
6,2,26,p,0.5773428329994204,2,94,0,Novel,no,1
6,2,27,p,0.6088089590011805,2,152,0,Novel,no,1
6,2,28,p,0.6854111659995397,1,111,0,Novel,no,1
6,2,29,q,0.7313686249999591,2,62,0,Novel,no,0
6,2,31,p,0.6313585410007363,1,7,0,Novel,no,1
6,2,32,q,0.6884824160006247,3,38,1,Famous,no,1
6,2,33,q,0.6184109170008014,3,51,1,Famous,no,1
6,2,34,q,0.6991970830003993,2,45,1,Famous,no,1
6,2,36,p,0.8318584160006139,1,117,0,Novel,no,1
6,2,37,p,0.5327440000000934,3,54,1,Famous,no,0
6,2,38,q,0.699515166999845,3,1,1,Famous,no,1
6,2,39,q,0.7680464579989348,3,60,1,Famous,no,1
6,2,40,p,0.7470567919990572,3,69,0,Novel,no,1
6,2,41,p,0.7631790839986934,2,145,0,Novel,no,1
6,2,42,p,0.6520098750006582,2,44,0,Novel,no,1
6,2,43,p,0.6327359579991025,2,47,0,Novel,no,1
6,2,44,p,0.6833577919987874,2,129,0,Novel,no,1
6,2,46,p,0.7659326249995502,3,97,0,Novel,no,1
6,2,47,q,0.6248199169986037,2,2,0,Novel,no,0
6,2,48,p,0.610651125000004,3,136,0,Novel,no,1
6,2,49,q,0.8517718750008498,1,32,1,Famous,no,1
6,2,50,q,0.6180351250004605,2,46,1,Famous,no,1
6,2,51,p,0.6435192090011697,1,10,0,Novel,no,1
6,2,52,p,0.7056732919991191,2,26,1,Famous,no,0
6,2,53,q,0.7012419580005371,2,27,1,Famous,no,1
6,2,54,q,0.6219187499991676,3,20,1,Famous,no,1
6,2,55,q,0.6988413340004627,1,34,1,Famous,no,1
6,2,56,p,0.8549170839996805,2,41,1,Famous,no,0
6,2,57,q,0.6215885000001435,3,53,1,Famous,no,1
6,2,58,q,0.6186517080004705,1,31,1,Famous,no,1
6,2,59,q,0.7678377920001367,2,56,1,Famous,no,1
6,2,60,p,0.7004492500000197,3,42,1,Famous,no,0
6,3,1,p,0.6821810830006143,2,42,0,Novel,no,1
6,3,2,p,0.7612542919996486,2,120,0,Novel,no,1
6,3,3,p,0.7585653330006608,2,146,0,Novel,no,1
6,3,4,q,0.8426339999987249,1,48,1,Famous,no,1
6,3,5,q,0.6057381669997994,3,144,0,Novel,no,0
6,3,6,p,0.6419036249990313,3,57,0,Novel,no,1
6,3,7,p,0.764766583999517,2,9,0,Novel,no,1
6,3,8,p,0.7576499589995365,1,132,0,Novel,no,1
6,3,9,q,0.8517382919999363,1,39,1,Famous,no,1
6,3,10,q,0.6993067499988683,2,21,1,Famous,no,1
6,3,11,p,0.6330575419997331,3,41,0,Novel,no,1
6,3,12,p,0.832623334001255,1,109,0,Novel,no,1
6,3,13,q,0.7830470829994738,2,42,1,Famous,no,1
6,3,14,p,0.6735816660002456,2,1,1,Famous,no,0
6,3,15,p,0.7465586670004996,1,28,0,Novel,no,1
6,3,16,q,0.6194814169994061,2,31,1,Famous,no,1
6,3,17,q,0.7714701669992792,3,52,1,Famous,no,1
6,3,18,q,0.5528759580010956,3,59,0,Novel,no,0
6,3,19,p,0.7289102909999201,1,79,0,Novel,no,1
6,3,20,p,0.6964967909989355,3,26,1,Famous,no,0
6,3,21,q,0.7753015420003067,1,56,1,Famous,no,1
6,3,22,p,0.7131492919997982,2,28,1,Famous,no,0
6,3,24,p,0.6797717499994178,2,91,0,Novel,no,1
6,3,25,q,0.6027174579994607,2,35,1,Famous,no,1
6,3,26,p,0.6169100829993113,3,59,1,Famous,no,0
6,3,27,p,0.7239194579997275,1,64,0,Novel,no,1
6,3,28,q,0.693734417000087,1,54,1,Famous,no,1
6,3,29,q,0.8324004580008477,2,47,1,Famous,no,1
6,3,30,p,0.755884000000151,3,105,0,Novel,no,1
6,3,32,q,0.6868476660001761,1,41,1,Famous,no,1
6,3,34,p,0.7675412079988746,3,70,0,Novel,no,1
6,3,35,q,0.6979383340003551,3,58,1,Famous,no,1
6,3,36,p,0.6844046659989544,3,150,0,Novel,no,1
6,3,37,p,0.6872637910000776,1,82,0,Novel,no,1
6,3,38,p,0.6853846249996423,3,134,0,Novel,no,1
6,3,39,q,0.6943590000009863,3,34,1,Famous,no,1
6,3,41,p,0.7595304169990413,1,53,0,Novel,no,1
6,3,42,p,0.8354401249998773,2,128,0,Novel,no,1
6,3,43,p,0.5522673329996906,2,88,0,Novel,no,1
6,3,44,p,0.442978333998326,2,61,0,Novel,no,1
6,3,45,p,0.7006822090006608,2,53,1,Famous,no,0
6,3,46,q,0.6241895000002842,2,24,1,Famous,no,1
6,3,47,p,0.6389224579997972,2,43,0,Novel,no,1
6,3,48,q,0.7048571249997622,1,12,1,Famous,no,1
6,3,49,p,0.6710414589997526,3,50,0,Novel,no,1
6,3,50,p,0.581213208999543,3,93,0,Novel,no,1
6,3,51,q,0.77863595800045,1,38,1,Famous,no,1
6,3,52,q,0.7743755410010635,1,27,1,Famous,no,1
6,3,53,q,0.6731725000008737,3,32,1,Famous,no,1
6,3,54,p,0.5039748750004946,3,45,0,Novel,no,1
6,3,55,q,0.555727625000145,2,36,1,Famous,no,1
6,3,56,q,0.6965982919991802,1,23,1,Famous,no,1
6,3,57,q,0.7686317919997236,3,45,1,Famous,no,1
6,3,58,q,0.5430418750001991,2,51,1,Famous,no,1
6,3,59,q,0.6234000000004016,2,20,1,Famous,no,1
6,3,60,q,0.6341517090004345,2,60,1,Famous,no,1
7,1,1,q,0.5335952499990526,3,150,0,Novel,no,0
7,1,2,q,0.6123548340001435,3,8,1,Famous,no,1
7,1,3,p,0.6865328750009212,1,1,1,Famous,no,0
7,1,4,p,0.8376073330000509,1,131,0,Novel,no,1
7,1,5,q,0.621681583001191,3,19,1,Famous,no,1
7,1,6,q,0.7442649999993591,3,142,0,Novel,no,0
7,1,7,q,0.6069537080002192,3,151,0,Novel,no,0
7,1,8,p,0.7279290830010723,2,19,0,Novel,no,1
7,1,9,q,0.5774155409999366,3,66,0,Novel,no,0
7,1,10,q,0.7793449170003441,1,14,1,Famous,no,1
7,1,11,p,0.6943890829988959,3,29,1,Famous,no,0
7,1,12,q,0.8204980419995991,1,61,0,Novel,no,0
7,1,13,q,0.6904759999997623,1,153,0,Novel,no,0
7,1,14,q,0.7358359169993491,2,12,0,Novel,no,0
7,1,15,p,0.802979874999437,3,17,0,Novel,no,1
7,1,16,q,0.6288383749997593,2,27,1,Famous,no,1
7,1,17,p,0.7252449580009852,2,32,0,Novel,no,1
7,1,18,p,0.7599689580001723,2,144,0,Novel,no,1
7,1,19,q,0.7837142080006743,2,60,1,Famous,no,1
7,1,20,q,0.8624395000006189,3,50,1,Famous,no,1
7,1,22,p,0.7699600420000934,3,80,0,Novel,no,1
7,1,23,p,0.7626274170015677,3,147,0,Novel,no,1
7,1,24,p,0.80739958400045,2,88,0,Novel,no,1
7,1,25,q,0.7786267920000682,3,13,1,Famous,no,1
7,1,26,q,0.6906421250005224,2,73,0,Novel,no,0
7,1,27,p,0.6740526659996249,1,36,0,Novel,no,1
7,1,28,p,0.683670374999565,1,20,0,Novel,no,1
7,1,29,p,0.5799134160006361,1,39,0,Novel,no,1
7,1,30,q,0.8498225420007657,3,46,1,Famous,no,1
7,1,33,p,0.5597789169987664,1,28,0,Novel,no,1
7,1,34,q,0.4858659590008756,2,26,0,Novel,no,0
7,1,35,q,0.6942404999990686,3,36,1,Famous,no,1
7,1,36,p,0.636389291001251,3,94,0,Novel,no,1
7,1,37,p,0.6793192499990255,3,41,0,Novel,no,1
7,1,38,p,0.6211014589989645,2,43,0,Novel,no,1
7,1,39,p,0.6259171660003631,2,11,0,Novel,no,1
7,1,40,p,0.683816000000661,1,108,0,Novel,no,1
7,1,41,q,0.6083219170013763,2,116,0,Novel,no,0
7,1,42,q,0.6762646670013055,3,23,1,Famous,no,1
7,1,43,q,0.6205652080006985,3,5,1,Famous,no,1
7,1,44,p,0.8221280830002797,2,35,1,Famous,no,0
7,1,45,p,0.6812948750011856,1,115,0,Novel,no,1
7,1,46,p,0.6193942079989938,3,97,0,Novel,no,1
7,1,47,q,0.7748628749995987,1,18,1,Famous,no,1
7,1,48,q,0.6144618750004156,3,34,1,Famous,no,1
7,1,49,q,0.545438874998581,1,20,1,Famous,no,1
7,1,50,q,0.6133024579994526,3,4,1,Famous,no,1
7,1,51,q,0.6156662080011301,3,11,1,Famous,no,1
7,1,52,q,0.6855380420001893,1,41,1,Famous,no,1
7,1,53,q,0.6182627910002338,1,38,1,Famous,no,1
7,1,54,p,0.5456547920002777,1,12,1,Famous,no,0
7,1,55,q,0.6233018330003688,1,24,1,Famous,no,1
7,1,57,q,0.6285722079992411,2,28,1,Famous,no,1
7,1,58,q,0.6205680839993875,2,52,1,Famous,no,1
7,1,59,q,0.62693845800095,1,45,1,Famous,no,1
7,1,60,q,0.541859666000164,3,39,1,Famous,no,1
7,2,1,q,0.7009452090005652,2,24,1,Famous,no,1
7,2,2,q,0.7023382080005831,2,4,1,Famous,no,1
7,2,3,q,0.766713584000172,1,23,1,Famous,no,1
7,2,4,p,0.751081708998754,3,125,0,Novel,no,1
7,2,5,p,0.830490500000451,1,123,0,Novel,no,1
7,2,6,q,0.5444946660009009,2,21,1,Famous,no,1
7,2,7,p,0.6735984170009033,2,13,0,Novel,no,1
7,2,8,q,0.7713839580010244,1,50,1,Famous,no,1
7,2,9,p,0.715704750000441,3,92,0,Novel,no,1
7,2,10,q,0.7732692919998954,1,8,1,Famous,no,1
7,2,11,q,0.7711121669999557,3,35,1,Famous,no,1
7,2,12,p,0.7609917919999134,1,138,0,Novel,no,1
7,2,13,q,0.5090176660014549,3,9,0,Novel,no,0
7,2,14,p,0.6884356669997942,1,119,0,Novel,no,1
7,2,15,p,0.6953182920005929,3,20,1,Famous,no,0
7,2,16,p,0.5515357499989477,1,76,0,Novel,no,1
7,2,17,p,0.7728818340001453,2,42,1,Famous,no,0
7,2,18,p,0.5955453749993467,1,51,0,Novel,no,1
7,2,19,p,0.6233016669993958,2,19,1,Famous,no,0
7,2,21,p,0.632669167000131,3,22,0,Novel,no,1
7,2,22,p,0.6843142920006358,3,135,0,Novel,no,1
7,2,23,p,0.5794208749994141,1,64,0,Novel,no,1
7,2,24,q,0.621954292000737,1,11,1,Famous,no,1
7,2,25,q,0.6909447500001988,3,38,1,Famous,no,1
7,2,26,q,0.7744591249993391,2,46,1,Famous,no,1
7,2,28,p,0.6430802499999118,2,4,0,Novel,no,1
7,2,29,q,0.7575514580003073,3,109,0,Novel,no,0
7,2,30,q,0.830345792001026,1,106,0,Novel,no,0
7,2,31,q,0.6953852080005163,3,52,1,Famous,no,1
7,2,32,q,0.6916984590006905,1,39,1,Famous,no,1
7,2,33,p,0.6839569580006355,1,77,0,Novel,no,1
7,2,34,p,0.6756967500004976,1,71,0,Novel,no,1
7,2,35,p,0.8350312919992575,3,126,0,Novel,no,1
7,2,36,p,0.5912628750011208,2,75,0,Novel,no,1
7,2,37,q,0.8473976250006672,1,36,1,Famous,no,1
7,2,38,p,0.8354255839985854,2,148,0,Novel,no,1
7,2,39,p,0.5984298750008747,1,49,0,Novel,no,1
7,2,40,p,0.6254090000002179,3,90,0,Novel,no,1
7,2,41,p,0.6249015829998825,1,68,0,Novel,no,1
7,2,42,q,0.7015239590000419,2,18,1,Famous,no,1
7,2,43,p,0.6902326669987815,1,72,0,Novel,no,1
7,2,44,q,0.6137300000009418,2,5,1,Famous,no,1
7,2,45,q,0.6072697079998761,1,7,1,Famous,no,1
7,2,46,p,0.6307623749999038,2,2,0,Novel,no,1
7,2,47,p,0.6193676659986522,1,60,0,Novel,no,1
7,2,48,p,0.7575039170005766,3,152,0,Novel,no,1
7,2,49,p,0.6217799590012874,2,101,0,Novel,no,1
7,2,50,p,0.6103149589998793,2,79,0,Novel,no,1
7,2,51,q,0.7003351250004926,2,29,1,Famous,no,1
7,2,52,q,0.6189814999997907,3,28,1,Famous,no,1
7,2,53,q,0.7017521670004498,2,13,1,Famous,no,1
7,2,54,q,0.622045292000621,1,27,1,Famous,no,1
7,2,56,q,0.6934913330005656,1,34,1,Famous,no,1
7,2,57,q,0.6233670830006304,3,12,1,Famous,no,1
7,2,58,q,0.6213942500016856,2,45,1,Famous,no,1
7,2,59,q,0.5272820419995696,2,1,1,Famous,no,1
7,2,60,q,0.6097599170007015,1,60,1,Famous,no,1
7,3,1,q,0.6210479170003964,3,18,1,Famous,no,1
7,3,2,p,0.7559929170001851,2,107,0,Novel,no,1
7,3,3,q,0.7802742499989108,2,20,1,Famous,no,1
7,3,4,p,0.7601377920000232,3,118,0,Novel,no,1
7,3,5,q,0.6450625839988788,2,67,0,Novel,no,0
7,3,6,q,0.7013033749990427,2,11,1,Famous,no,1
7,3,7,p,0.6206098330003442,1,4,1,Famous,no,0
7,3,8,p,0.588461625000491,2,102,0,Novel,no,1
7,3,9,q,0.7703317499999685,2,8,1,Famous,no,1
7,3,10,q,0.5458369999996648,2,34,1,Famous,no,1
7,3,11,p,0.6078246669985674,3,143,0,Novel,no,1
7,3,12,q,0.7081479580010637,2,39,1,Famous,no,1
7,3,13,q,0.5481037499994272,3,14,1,Famous,no,1
7,3,14,q,0.5457633329988312,1,56,0,Novel,no,0
7,3,15,q,0.6954741249992367,1,35,1,Famous,no,1
7,3,16,p,0.5768537499989179,2,42,0,Novel,no,1
7,3,17,q,0.8486339170012798,1,19,1,Famous,no,1
7,3,18,q,0.6815536659996724,3,45,1,Famous,no,1
7,3,19,q,0.6211273750013788,2,38,1,Famous,no,1
7,3,20,p,0.6828379580001638,2,104,0,Novel,no,1
7,3,22,q,0.7081886249998206,1,21,1,Famous,no,1
7,3,23,q,0.6147922090003703,2,7,1,Famous,no,1
7,3,24,p,0.7453882909994718,1,124,0,Novel,no,1
7,3,25,q,0.7034540829990874,2,50,1,Famous,no,1
7,3,26,q,0.6202377080007864,3,1,1,Famous,no,1
7,3,27,q,0.679857125000126,1,95,0,Novel,no,0
7,3,28,p,0.7566520830005175,2,18,0,Novel,no,1
7,3,29,q,0.6929727919996367,3,27,1,Famous,no,1
7,3,30,q,0.628311708000183,1,5,1,Famous,no,1
7,3,31,p,0.6486918339996919,1,21,0,Novel,no,1
7,3,32,q,0.7009006249991216,3,60,1,Famous,no,1
7,3,33,p,0.6921171249996405,2,44,0,Novel,no,1
7,3,34,q,0.7029438749996189,3,42,1,Famous,no,1
7,3,35,p,0.5797724580006616,1,84,0,Novel,no,1
7,3,36,p,0.7579586669999117,1,139,0,Novel,no,1
7,3,37,q,0.6264220410012058,2,36,1,Famous,no,1
7,3,38,p,0.7552082500005781,3,146,0,Novel,no,1
7,3,39,p,0.7597317919990019,1,111,0,Novel,no,1
7,3,40,q,0.7749207500000921,2,23,1,Famous,no,1
7,3,41,p,0.6782710829993448,1,134,0,Novel,no,1
7,3,42,p,0.7139208330008842,3,59,0,Novel,no,1
7,3,43,q,0.6719442920002621,1,33,0,Novel,no,0
7,3,44,p,0.7140049999998155,1,25,0,Novel,no,1
7,3,45,p,0.7680782079987694,1,29,1,Famous,no,0
7,3,46,p,0.7390907499993773,1,91,0,Novel,no,1
7,3,47,q,0.7728235829999903,1,46,1,Famous,no,1
7,3,48,p,0.7737588339987269,2,38,0,Novel,no,1
7,3,49,q,0.6990216670001246,1,52,1,Famous,no,1
7,3,50,p,0.6342302920002112,2,52,0,Novel,no,1
7,3,51,q,0.697648332999961,1,28,1,Famous,no,1
7,3,52,p,0.6367125000015221,2,37,0,Novel,no,1
7,3,54,q,0.6906267920003302,3,41,1,Famous,no,1
7,3,55,p,0.8128005839989783,3,29,0,Novel,no,1
7,3,57,q,0.7795675420002226,1,13,1,Famous,no,1
7,3,58,q,0.6230577080004878,3,24,1,Famous,no,1
7,3,59,q,0.6193594579999626,2,12,1,Famous,no,1
7,3,60,p,0.5785886670000764,1,23,0,Novel,no,1
8,1,1,p,0.611891790998925,1,117,0,Novel,no,1
8,1,2,q,0.543881458001124,1,22,1,Famous,no,1
8,1,3,p,0.49206766599854745,2,42,0,Novel,no,1
8,1,4,q,0.625490083000841,1,14,1,Famous,no,1
8,1,5,q,0.6247321250011737,3,18,1,Famous,no,1
8,1,6,p,0.587016458999642,1,50,0,Novel,no,1
8,1,7,q,0.6086492909998924,3,135,0,Novel,no,0
8,1,8,p,0.6257617499995831,1,40,1,Famous,no,0
8,1,9,q,0.697310457999265,2,52,1,Famous,no,1
8,1,10,p,0.682612832999439,2,114,0,Novel,no,1
8,1,11,q,0.5329164170016156,2,102,0,Novel,no,0
8,1,12,p,0.5905097499999101,1,7,0,Novel,no,1
8,1,13,p,0.6729373750004015,2,89,0,Novel,no,1
8,1,14,p,0.5349249159989995,1,129,0,Novel,no,1
8,1,15,p,0.6114909999996598,3,151,0,Novel,no,1
8,1,16,p,0.5480848329989385,2,9,0,Novel,no,1
8,1,17,p,0.8400083750002523,1,146,0,Novel,no,1
8,1,19,p,0.530412250000154,1,113,0,Novel,no,1
8,1,20,p,0.41297395899891853,2,60,0,Novel,no,1
8,1,21,q,0.6181210839986306,1,28,1,Famous,no,1
8,1,22,p,0.4068934580009227,1,80,0,Novel,no,1
8,1,23,q,0.3580107500001759,1,71,0,Novel,no,0
8,1,24,q,0.5351136669996777,1,143,0,Novel,no,0
8,1,25,p,0.4694340000005468,2,24,1,Famous,no,0
8,1,26,q,0.5447206249991723,3,13,1,Famous,no,1
8,1,27,q,0.6886047500011045,1,111,0,Novel,no,0
8,1,28,q,0.7795993750005437,2,25,1,Famous,no,1
8,1,29,q,0.6314261249990523,2,14,0,Novel,no,0
8,1,30,p,0.5473914590002096,1,6,1,Famous,no,0
8,1,31,q,0.4961619999994582,2,41,0,Novel,no,0
8,1,32,q,0.7734489579997899,3,29,1,Famous,no,1
8,1,33,p,0.6863434580009198,1,75,0,Novel,no,1
8,1,34,q,0.6020527499986201,3,23,1,Famous,no,1
8,1,35,p,0.5455777499992109,1,27,1,Famous,no,0
8,1,36,q,0.7655751250003959,3,41,1,Famous,no,1
8,1,37,q,0.5951052919990616,2,72,0,Novel,no,0
8,1,38,p,0.7242414590000408,3,51,0,Novel,no,1
8,1,40,q,0.6962774170006014,2,47,0,Novel,no,0
8,1,41,p,0.5402746249983466,2,16,1,Famous,no,0
8,1,42,p,0.6452927079990332,3,93,0,Novel,no,1
8,1,43,q,0.7085001250015921,1,30,1,Famous,no,1
8,1,44,p,0.6380735410002671,2,38,0,Novel,no,1
8,1,45,p,0.5838583329987159,3,79,0,Novel,no,1
8,1,46,q,0.621877499999755,2,7,1,Famous,no,1
8,1,47,p,0.5897600839998631,3,29,0,Novel,no,1
8,1,48,p,0.5390434159999131,3,11,0,Novel,no,1
8,1,49,q,0.5498244169993995,3,21,1,Famous,no,1
8,1,50,q,0.5301872909985832,3,8,1,Famous,no,1
8,1,51,p,0.5468770839997887,1,17,1,Famous,no,0
8,1,52,q,0.6066189579996717,3,9,1,Famous,no,1
8,1,53,p,0.6651682909996453,3,47,1,Famous,no,0
8,1,54,q,0.6930375830015691,3,51,1,Famous,no,1
8,1,55,q,0.6760352499986766,2,1,1,Famous,no,1
8,1,56,q,0.5404733750001469,1,4,1,Famous,no,1
8,1,57,p,0.5475658750001458,2,42,1,Famous,no,0
8,1,58,q,0.4648925839992444,3,15,1,Famous,no,1
8,1,59,q,0.46452504099943326,3,19,1,Famous,no,1
8,1,60,p,0.38626579199990374,2,5,1,Famous,no,0
8,2,1,p,0.3936945410005137,2,27,1,Famous,no,0
8,2,2,q,0.5497362080004677,2,14,1,Famous,no,1
8,2,3,q,0.531868874999418,1,29,1,Famous,no,1
8,2,4,p,0.5491617079987918,3,17,1,Famous,no,0
8,2,5,q,0.467044832999818,1,13,1,Famous,no,1
8,2,6,q,0.5294267079989368,3,144,0,Novel,no,0
8,2,7,p,0.532983333001539,1,132,0,Novel,no,1
8,2,8,q,0.5373032920015248,3,4,1,Famous,no,1
8,2,9,p,0.3230484579999029,1,62,0,Novel,no,1
8,2,10,p,0.45373091700093937,1,74,0,Novel,no,1
8,2,11,q,0.46856745799959754,3,24,1,Famous,no,1
8,2,12,p,0.5425377089995891,1,5,1,Famous,no,0
8,2,13,q,0.452155250000942,1,43,0,Novel,no,0
8,2,14,q,0.5406179159999738,3,25,1,Famous,no,1
8,2,15,p,0.5497468339999614,1,51,1,Famous,no,0
8,2,16,q,0.4653364160003548,1,52,1,Famous,no,1
8,2,17,q,0.5327862079993793,1,7,1,Famous,no,1
8,2,18,p,0.5503434999991441,2,20,0,Novel,no,1
8,2,19,p,0.5298320410001907,3,105,0,Novel,no,1
8,2,20,p,0.6077866249997896,2,118,0,Novel,no,1
8,2,21,p,0.5887653749996389,1,77,0,Novel,no,1
8,2,22,p,0.6072980419994565,1,53,0,Novel,no,1
8,2,23,q,0.5341645419994165,3,98,0,Novel,no,0
8,2,24,q,0.5357314169996243,3,119,0,Novel,no,0
8,2,25,p,0.7010115000011865,3,30,1,Famous,no,0
8,2,26,p,0.4569099999989703,1,47,1,Famous,no,0
8,2,27,q,0.5169040420005331,2,27,0,Novel,no,0
8,2,28,p,0.6254332089993113,1,45,1,Famous,no,0
8,2,29,p,0.7359712500001478,2,2,0,Novel,no,1
8,2,30,q,0.5483931670005404,1,15,1,Famous,no,1
8,2,31,q,0.6091220419984893,2,145,0,Novel,no,0
8,2,32,p,0.5342543330007175,3,139,0,Novel,no,1
8,2,33,p,0.5498651249999966,3,42,1,Famous,no,0
8,2,34,p,0.7023215419994813,2,41,1,Famous,no,0
8,2,35,q,0.546295750000354,2,18,1,Famous,no,1
8,2,36,p,0.546647541999846,3,91,0,Novel,no,1
8,2,37,p,0.49523716700059595,1,76,0,Novel,no,1
8,2,38,q,0.6278266250010347,2,40,1,Famous,no,1
8,2,39,p,0.6156154170002992,3,22,1,Famous,no,0
8,2,40,q,0.6247252909997769,3,1,1,Famous,no,1
8,2,41,q,0.523246583999935,2,6,1,Famous,no,1
8,2,42,p,0.586032791999969,1,59,0,Novel,no,1
8,2,43,q,0.4885528750000958,2,68,0,Novel,no,0
8,2,44,q,0.8434594999998808,3,115,0,Novel,no,0
8,2,45,p,0.6839288339997438,1,112,0,Novel,no,1
8,2,46,q,0.6919999999990978,2,9,1,Famous,no,1
8,2,48,q,0.6926868749997084,2,8,1,Famous,no,1
8,2,49,p,0.5961898339992331,3,83,0,Novel,no,1
8,2,50,p,0.5431245420004416,1,23,1,Famous,no,0
8,2,51,q,0.4163802089988166,2,16,0,Novel,no,0
8,2,52,p,0.304583957999057,1,100,0,Novel,no,1
8,2,53,p,0.3603336659998604,3,61,0,Novel,no,1
8,2,54,q,0.5522401660000469,2,19,1,Famous,no,1
8,2,55,p,0.4996381670007395,1,23,0,Novel,no,1
8,2,56,p,0.5304274159989291,3,16,1,Famous,no,0
8,2,57,q,0.45473904100072104,3,108,0,Novel,no,0
8,2,58,p,0.4760057080002298,2,28,1,Famous,no,0
8,2,59,q,0.3735984169998119,3,22,0,Novel,no,0
8,2,60,q,0.6374507920008909,1,21,1,Famous,no,1
8,3,1,q,0.5877387910004472,3,21,0,Novel,no,0
8,3,2,q,0.7828738749994955,2,13,1,Famous,no,1
8,3,3,p,0.4566722090003168,2,141,0,Novel,no,1
8,3,4,q,0.6299910000016098,2,4,1,Famous,no,1
8,3,5,p,0.388313957999344,1,16,1,Famous,no,0
8,3,6,q,0.5317021250011749,1,136,0,Novel,no,0
8,3,7,p,0.6935572500005946,1,19,1,Famous,no,0
8,3,8,q,0.6250629580008535,2,21,1,Famous,no,1
8,3,9,q,0.6177844160010864,1,8,1,Famous,no,1
8,3,10,q,0.6260776669987536,2,23,1,Famous,no,1
8,3,11,q,0.4605597090012452,3,7,1,Famous,no,1
8,3,12,p,0.46668466700066347,3,40,1,Famous,no,0
8,3,13,q,0.6061504160006734,2,47,1,Famous,no,1
8,3,14,q,0.6038692499987519,2,126,0,Novel,no,0
8,3,15,p,0.6922664159992564,3,52,1,Famous,no,0
8,3,16,q,0.4470826249998936,1,109,0,Novel,no,0
8,3,17,p,0.5341385419997096,2,131,0,Novel,no,1
8,3,18,p,0.5426192499999161,2,29,1,Famous,no,0
8,3,19,q,0.5070281669995893,1,26,0,Novel,no,0
8,3,20,q,0.6938915829996404,1,41,1,Famous,no,1
8,3,21,p,0.7563959999988583,1,128,0,Novel,no,1
8,3,22,p,0.6427799169996433,3,94,0,Novel,no,1
8,3,23,p,0.5325207500009128,1,64,0,Novel,no,1
8,3,24,q,0.7009913750007399,1,24,1,Famous,no,1
8,3,25,p,0.6208579590002046,2,51,1,Famous,no,0
8,3,26,q,0.5313639590003731,1,42,1,Famous,no,1
8,3,27,p,0.6788522919996467,2,56,0,Novel,no,1
8,3,28,q,0.6288989170006971,2,22,1,Famous,no,1
8,3,29,q,0.6826657090005028,3,147,0,Novel,no,0
8,3,30,q,0.5312283329985803,2,1,0,Novel,no,0
8,3,31,p,0.6804757499994594,3,124,0,Novel,no,1
8,3,32,q,0.6340900840004906,2,57,0,Novel,no,0
8,3,33,p,0.7172754580005858,2,32,0,Novel,no,1
8,3,34,p,0.66523966699969606,2,70,0,Novel,no,1
8,3,35,q,0.6208169580004324,3,5,1,Famous,no,1
8,3,36,p,0.6909378749987809,1,9,1,Famous,no,0
8,3,37,q,0.616114333999576,1,4,0,Novel,no,0
8,3,38,p,0.6901193339999736,1,67,0,Novel,no,1
8,3,39,p,0.8092650830003549,2,52,0,Novel,no,1
8,3,40,q,0.45567162500083214,1,49,0,Novel,no,0
8,3,41,q,0.4565541250012757,3,36,0,Novel,no,0
8,3,42,p,0.390834249999898,2,30,1,Famous,no,0
8,3,43,p,0.6080212500000926,1,148,0,Novel,no,1
8,3,44,p,0.08502133300135029,1,18,0,Novel,no,1
8,3,45,q,0.3149063750006462,3,95,0,Novel,no,0
8,3,46,q,0.6132490410000173,2,17,1,Famous,no,1
8,3,47,q,0.4569526670002233,3,39,0,Novel,no,0
8,3,48,p,0.5339992919998622,3,152,0,Novel,no,1
8,3,49,p,0.44343387499975506,3,13,0,Novel,no,1
8,3,50,p,0.48864899999898626,1,25,0,Novel,no,1
8,3,51,p,0.3425829999996495,3,90,0,Novel,no,1
8,3,52,q,0.5383751250010391,3,28,1,Famous,no,1
8,3,53,q,0.701404833000197,3,14,1,Famous,no,1
8,3,54,q,0.5408596669985855,1,18,1,Famous,no,1
8,3,55,q,0.5316866250013845,3,45,1,Famous,no,1
8,3,56,p,0.4645134170004894,2,15,1,Famous,no,0
8,3,57,q,0.4564045420011098,1,25,1,Famous,no,1
8,3,58,q,0.5393502089991671,3,6,1,Famous,no,1
8,3,59,q,0.45551199999863456,1,1,1,Famous,no,1
8,3,60,q,0.5346617920004064,3,27,1,Famous,no,1
9,1,1,q,0.7139853330008918,1,10,0,Novel,no,0
9,1,3,p,0.5869757920008851,2,25,0,Novel,no,1
9,1,4,p,0.607608333000826,2,122,0,Novel,no,1
9,1,5,p,0.8634579579993442,1,10,1,Famous,no,0
9,1,6,q,0.6960485410018009,3,6,1,Famous,no,1
9,1,7,p,0.5294621249995544,1,128,0,Novel,no,1
9,1,8,q,0.7004755419984576,3,5,1,Famous,no,1
9,1,9,p,0.48344579200056614,2,80,0,Novel,no,1
9,1,10,p,0.6230053749968647,2,45,1,Famous,no,0
9,1,11,p,0.6457845830009319,3,76,0,Novel,no,1
9,1,12,p,0.6957985419976467,1,46,1,Famous,no,0
9,1,13,p,0.6958743340001092,1,36,0,Novel,no,1
9,1,14,q,0.6255434160011646,3,20,1,Famous,no,1
9,1,15,p,0.46443762499984587,1,82,0,Novel,no,1
9,1,16,p,0.6130416669984697,1,142,0,Novel,no,1
9,1,17,p,0.5510269590013195,2,21,1,Famous,no,0
9,1,18,p,0.5326235419997829,1,134,0,Novel,no,1
9,1,19,p,0.6252661250000529,3,33,1,Famous,no,0
9,1,20,p,0.6996912089998659,3,39,1,Famous,no,0
9,1,21,q,0.7254324589994212,1,59,1,Famous,no,1
9,1,22,q,0.7760279590002028,2,52,1,Famous,no,1
9,1,23,q,0.6325779170001624,2,56,0,Novel,no,0
9,1,24,p,0.6988720829976955,3,26,1,Famous,no,0
9,1,25,p,0.6934907499999099,3,20,0,Novel,no,1
9,1,26,p,0.5798065419985505,3,38,0,Novel,no,1
9,1,27,q,0.62833770799989,3,23,0,Novel,no,0
9,1,28,p,0.6108570830001554,3,8,1,Famous,no,0
9,1,29,p,0.6370986250003625,1,11,0,Novel,no,1
9,1,30,q,0.8569971659999283,2,12,1,Famous,no,1
9,1,31,p,0.5782837500009919,1,51,0,Novel,no,1
9,1,32,p,0.6216191670027911,2,61,0,Novel,no,1
9,1,33,p,0.5296817079979519,2,95,0,Novel,no,1
9,1,34,p,0.7827029580003,2,42,1,Famous,no,0
9,1,35,q,0.7713492920011049,3,27,1,Famous,no,1
9,1,36,p,0.694169458001852,1,1,1,Famous,no,0
9,1,37,p,0.6326645829976769,2,37,0,Novel,no,1
9,1,39,p,0.743571624996548,3,47,1,Famous,no,0
9,1,40,q,0.7745537910013809,1,47,0,Novel,no,0
9,1,42,p,0.760167915999773,2,108,0,Novel,no,1
9,1,43,p,0.8548041249996459,2,19,1,Famous,no,0
9,1,44,p,0.7598660410003504,3,130,0,Novel,no,1
9,1,45,p,0.6627066250002827,1,84,0,Novel,no,1
9,1,46,p,0.7620465840009274,3,104,0,Novel,no,1
9,1,47,p,0.6206249999995634,1,28,1,Famous,no,0
9,1,48,p,0.6992078339972068,1,40,1,Famous,no,0
9,1,49,p,0.6852728330013633,1,139,0,Novel,no,1
9,1,50,q,0.7545576659977087,2,90,0,Novel,no,0
9,1,51,p,0.6875304159984807,1,41,1,Famous,no,0
9,1,52,q,0.8371617920020071,1,7,1,Famous,no,1
9,1,53,p,0.6263708749975194,3,59,0,Novel,no,1
9,1,54,p,0.698537624997698,1,18,1,Famous,no,0
9,1,55,p,0.7578739579985267,1,112,0,Novel,no,1
9,1,57,q,0.8584219999975176,2,38,1,Famous,no,1
9,1,58,q,0.776715250001871,3,25,1,Famous,no,1
9,1,59,q,0.7885409999980766,2,4,1,Famous,no,1
9,2,1,q,0.8180017500017129,2,92,0,Novel,no,0
9,2,2,p,0.6842937500005064,3,64,0,Novel,no,1
9,2,3,p,0.8363200410021818,3,111,0,Novel,no,1
9,2,4,p,0.6317445829990902,1,32,0,Novel,no,1
9,2,5,p,0.706157708002138,2,1,0,Novel,no,1
9,2,6,p,0.6315554579996387,1,28,0,Novel,no,1
9,2,7,p,0.7822295410005609,3,19,1,Famous,no,0
9,2,8,p,0.7317326249976759,3,4,0,Novel,no,1
9,2,9,q,0.7571736669997335,2,115,0,Novel,no,0
9,2,10,q,0.8548271250001562,1,5,1,Famous,no,1
9,2,11,q,0.6867462080008409,3,38,1,Famous,no,1
9,2,12,p,0.7199616249999963,3,52,0,Novel,no,1
9,2,13,p,0.6887717499994324,2,150,0,Novel,no,1
9,2,14,q,0.8597693750016333,1,12,1,Famous,no,1
9,2,15,q,0.8532798750020447,2,46,1,Famous,no,1
9,2,16,p,0.6997321669987286,3,40,1,Famous,no,0
9,2,18,q,0.7618067920011526,2,3,1,Famous,no,1
9,2,19,p,0.8296182499980205,3,124,0,Novel,no,1
9,2,21,q,0.8354340000005323,2,47,1,Famous,no,1
9,2,22,p,0.6916300829980173,1,22,0,Novel,no,1
9,2,25,p,0.5416593329973693,3,18,1,Famous,no,0
9,2,26,p,0.666273041999375,3,87,0,Novel,no,1
9,2,27,p,0.7092054169988842,1,102,0,Novel,no,1
9,2,28,p,0.8331272089999402,3,41,1,Famous,no,0
9,2,29,p,0.5816512499986857,1,62,0,Novel,no,1
9,2,30,p,0.6106102919984551,2,143,0,Novel,no,1
9,2,32,p,0.6863272920018062,2,125,0,Novel,no,1
9,2,33,p,0.7756594579986995,1,20,1,Famous,no,0
9,2,34,p,0.7001788330017007,2,26,1,Famous,no,0
9,2,35,p,0.5449852499987173,2,7,0,Novel,no,1
9,2,36,p,0.6238955830012856,1,60,0,Novel,no,1
9,2,37,p,0.7125326249988575,2,2,0,Novel,no,1
9,2,38,p,0.6196402919995307,2,41,0,Novel,no,1
9,2,39,p,0.635241167001368,1,19,0,Novel,no,1
9,2,40,p,0.8493780409989995,2,8,1,Famous,no,0
9,2,41,q,0.8510651249998773,3,52,1,Famous,no,1
9,2,44,p,0.6231670409979415,2,39,1,Famous,no,0
9,2,45,q,0.8566704590011796,1,33,1,Famous,no,1
9,2,46,p,0.6210944590020517,1,89,0,Novel,no,1
9,2,47,q,0.8468863329981104,3,7,1,Famous,no,1
9,2,48,p,0.834345041999768,1,42,1,Famous,no,0
9,2,49,p,0.8423464170009538,2,131,0,Novel,no,1
9,2,50,q,0.8585249170027964,3,1,1,Famous,no,1
9,2,51,p,0.8335995830020693,2,126,0,Novel,no,1
9,2,52,p,0.6942297080022399,3,71,0,Novel,no,1
9,2,53,p,0.6738398749985208,3,13,0,Novel,no,1
9,2,54,p,0.6196237500007555,1,4,1,Famous,no,0
9,2,55,p,0.6796665410001879,1,91,0,Novel,no,1
9,2,58,p,0.7783203330000106,3,21,1,Famous,no,0
9,3,1,p,0.7689620410019415,1,39,1,Famous,no,0
9,3,2,p,0.6652104589993542,3,68,0,Novel,no,1
9,3,3,q,0.5829888750013197,2,1,1,Famous,no,1
9,3,4,q,0.7791802920000919,2,40,1,Famous,no,1
9,3,5,q,0.6956137080014742,3,3,1,Famous,no,1
9,3,6,p,0.734964041999774,1,45,0,Novel,no,1
9,3,8,p,0.6970235830012825,1,19,1,Famous,no,0
9,3,9,p,0.822649415997148,3,16,0,Novel,no,1
9,3,11,q,0.784123790999729,2,2,1,Famous,no,1
9,3,12,q,0.7700214999968011,2,5,1,Famous,no,1
9,3,13,q,0.7787279580006725,2,27,1,Famous,no,1
9,3,15,q,0.8632211250005639,2,33,1,Famous,no,1
9,3,19,q,0.7007665000019188,2,18,1,Famous,no,1
9,3,20,q,0.6780263340006059,2,69,0,Novel,no,0
9,3,21,q,0.8574652499992226,1,38,1,Famous,no,1
9,3,22,p,0.768761083996651,3,66,0,Novel,no,1
9,3,23,p,0.8372972079996543,1,116,0,Novel,no,1
9,3,25,p,0.860375665997708,2,25,1,Famous,no,0
9,3,27,p,0.7597055420010292,1,148,0,Novel,no,1
9,3,28,q,0.8619281249993946,1,21,1,Famous,no,1
9,3,30,p,0.777900959001272,3,12,1,Famous,no,0
9,3,33,q,0.8521304579990101,3,28,1,Famous,no,1
9,3,34,q,0.7801299169987033,2,41,1,Famous,no,1
9,3,35,p,0.7592560829980357,3,136,0,Novel,no,1
9,3,36,p,0.6612758330011275,2,88,0,Novel,no,1
9,3,38,p,0.6160596250010713,2,42,0,Novel,no,1
9,3,39,p,0.6649913330002164,1,83,0,Novel,no,1
9,3,42,q,0.7722105409993674,2,7,1,Famous,no,1
9,3,43,p,0.7341327920003096,3,43,0,Novel,no,1
9,3,44,p,0.8658025830009137,2,20,1,Famous,no,0
9,3,45,p,0.6726362499975949,2,17,0,Novel,no,1
9,3,47,p,0.6750498750006955,3,93,0,Novel,no,1
9,3,48,p,0.7688912920020812,2,151,0,Novel,no,1
9,3,49,p,0.6925682090004557,1,29,0,Novel,no,1
9,3,51,p,0.6882986669988895,2,77,0,Novel,no,1
9,3,52,p,0.5998256250022678,3,67,0,Novel,no,1
9,3,53,p,0.6857096659987292,3,153,0,Novel,no,1
9,3,54,p,0.760162834001676,1,109,0,Novel,no,1
9,3,55,p,0.6086104999994859,3,117,0,Novel,no,1
9,3,56,p,0.5269883750006557,1,106,0,Novel,no,1
9,3,57,p,0.6810785839988966,1,146,0,Novel,no,1
9,3,58,p,0.6328177499999583,1,78,0,Novel,no,1
10,1,1,q,0.6302692499994009,1,50,0,Novel,no,0
10,1,3,q,0.8449002920006023,3,36,1,Famous,no,1
10,1,4,p,0.6897367080000549,3,8,1,Famous,no,0
10,1,5,q,0.6212574160017539,1,34,1,Famous,no,1
10,1,6,q,0.692869458000132,1,1,1,Famous,no,1
10,1,7,p,0.770748791999722,3,153,0,Novel,no,1
10,1,8,p,0.6046491670003888,1,59,0,Novel,no,1
10,1,9,q,0.7749729169991042,1,19,1,Famous,no,1
10,1,10,q,0.6913703329992131,1,135,0,Novel,no,0
10,1,11,q,0.7650609170013922,3,152,0,Novel,no,0
10,1,12,p,0.6883661250012665,1,143,0,Novel,no,1
10,1,13,q,0.6952168329989945,3,58,1,Famous,no,1
10,1,14,q,0.623528707999867,3,13,1,Famous,no,1
10,1,15,p,0.6993972919990483,2,29,0,Novel,no,1
10,1,16,q,0.6360869170002843,2,14,1,Famous,no,1
10,1,17,q,0.7102634999992006,2,54,1,Famous,no,1
10,1,18,q,0.6849996250002732,1,60,1,Famous,no,1
10,1,19,q,0.7013872500010621,2,27,1,Famous,no,1
10,1,20,p,0.7651993750005204,3,147,0,Novel,no,1
10,1,21,p,0.6272320419993775,2,42,1,Famous,no,0
10,1,22,q,0.7591662079994421,3,138,0,Novel,no,0
10,1,23,p,0.6854719580005622,2,11,0,Novel,no,1
10,1,24,q,0.8577510830000392,3,55,1,Famous,no,1
10,1,25,p,0.6780180409987224,3,82,0,Novel,no,1
10,1,26,p,0.6232440419989871,2,25,0,Novel,no,1
10,1,27,q,0.7111212919990066,1,21,1,Famous,no,1
10,1,28,p,0.6344387909994111,1,38,0,Novel,no,1
10,1,29,p,0.5910269159994641,2,16,0,Novel,no,1
10,1,30,q,0.701143416999912,1,37,1,Famous,no,1
10,1,31,q,0.7601790000007895,3,139,0,Novel,no,0
10,1,32,q,0.6855507910004235,2,47,1,Famous,no,1
10,1,33,q,0.619334125000023,1,23,1,Famous,no,1
10,1,34,q,0.7804456659996504,2,30,1,Famous,no,1
10,1,35,q,0.6545677909998631,1,59,1,Famous,no,1
10,1,36,q,0.7002072499999485,3,12,1,Famous,no,1
10,1,37,q,0.6740707919998385,3,26,1,Famous,no,1
10,1,38,q,0.8452022080000461,3,38,1,Famous,no,1
10,1,39,q,0.6957130000009784,1,28,1,Famous,no,1
10,1,40,q,0.8463969169988559,3,29,1,Famous,no,1
10,1,41,q,0.5547774580008991,3,12,0,Novel,no,0
10,1,42,q,0.7831512499997189,1,33,1,Famous,no,1
10,1,43,q,0.8587744999986171,1,20,1,Famous,no,1
10,1,44,p,0.5502724170000874,1,87,0,Novel,no,1
10,1,45,p,0.7674401669992221,2,74,0,Novel,no,1
10,1,46,q,0.6952069580001989,3,3,1,Famous,no,1
10,1,47,q,0.7834473329985485,2,57,1,Famous,no,1
10,1,48,q,0.6979918340002769,1,35,1,Famous,no,1
10,1,49,p,0.8271839589997398,1,129,0,Novel,no,1
10,1,50,p,0.8433703749997221,1,57,0,Novel,no,1
10,1,51,p,0.7245552500007761,2,81,0,Novel,no,1
10,1,52,p,0.6882137499997043,2,115,0,Novel,no,1
10,1,53,p,0.7066066249990399,3,67,0,Novel,no,1
10,1,54,p,0.6773951659997692,1,39,0,Novel,no,1
10,1,55,p,0.5938713329996972,2,60,0,Novel,no,1
10,1,56,p,0.5898730000008072,3,13,0,Novel,no,1
10,1,57,p,0.6730197500000941,2,117,0,Novel,no,1
10,1,58,p,0.5586336660016968,1,32,0,Novel,no,1
10,1,59,p,0.5525999159999628,3,27,0,Novel,no,1
10,1,60,p,0.5879592500004946,2,79,0,Novel,no,1
10,2,1,p,0.62240812500022,2,98,0,Novel,no,1
10,2,2,p,0.7001746659989294,3,21,1,Famous,no,0
10,2,3,p,0.7630967920013063,3,113,0,Novel,no,1
10,2,4,p,0.5476707079997141,3,95,0,Novel,no,1
10,2,5,p,0.593049457998859,3,33,0,Novel,no,1
10,2,6,p,0.5869307499997376,2,20,0,Novel,no,1
10,2,7,q,0.69629970799906,3,28,1,Famous,no,1
10,2,8,q,0.6713528750005935,2,9,0,Novel,no,0
10,2,9,p,0.687170208999305,1,68,0,Novel,no,1
10,2,11,p,0.8359217920005904,1,112,0,Novel,no,1
10,2,12,q,0.7069652909995057,2,26,1,Famous,no,1
10,2,13,p,0.6501546669987874,2,72,0,Novel,no,1
10,2,14,p,0.6136576249991776,2,141,0,Novel,no,1
10,2,15,q,0.7730714999997872,3,30,1,Famous,no,1
10,2,16,p,0.7330680409995693,3,91,0,Novel,no,1
10,2,17,p,0.6130981660007819,1,118,0,Novel,no,1
10,2,18,q,0.6873113340006967,2,110,0,Novel,no,0
10,2,19,q,0.7030960829997639,1,13,1,Famous,no,1
10,2,20,q,0.6914537499997095,2,58,1,Famous,no,1
10,2,21,q,0.6907900830010476,1,8,1,Famous,no,1
10,2,22,p,0.7575714579998021,2,122,0,Novel,no,1
10,2,23,p,0.608491042001333,1,151,0,Novel,no,1
10,2,24,p,0.7223336249990098,3,92,0,Novel,no,1
10,2,25,q,0.7657217920004769,3,27,1,Famous,no,1
10,2,26,q,0.6730762919996778,3,23,1,Famous,no,1
10,2,27,p,0.580731250000099,1,100,0,Novel,no,1
10,2,28,p,0.7679322500007402,1,145,0,Novel,no,1
10,2,29,p,0.6793353329994716,2,2,0,Novel,no,1
10,2,30,q,0.7096780000010767,1,12,1,Famous,no,1
10,2,31,q,0.6928454160006368,1,54,1,Famous,no,1
10,2,32,q,0.7062734589999309,2,3,1,Famous,no,1
10,2,34,q,0.7027062090000982,2,37,1,Famous,no,1
10,2,35,q,0.6994818749990372,1,14,1,Famous,no,1
10,2,36,q,0.7036304590001237,2,20,1,Famous,no,1
10,2,37,q,0.8190386670012231,3,47,1,Famous,no,1
10,2,38,p,0.8352510419990722,1,134,0,Novel,no,1
10,2,39,q,0.7020931249990099,3,33,1,Famous,no,1
10,2,40,q,0.6248348329991131,3,1,1,Famous,no,1
10,2,41,q,0.6987607910014049,2,29,1,Famous,no,1
10,2,42,p,0.6392911250004545,1,101,0,Novel,no,1
10,2,43,p,0.5308760419993632,2,90,0,Novel,no,1
10,2,44,q,0.7095327080005518,2,50,1,Famous,no,1
10,2,45,q,0.7773703750008281,2,19,1,Famous,no,1
10,2,46,p,0.6464130419990397,3,71,0,Novel,no,1
10,2,47,q,0.6788238339995587,2,35,1,Famous,no,1
10,2,48,p,0.6133006660002138,2,1,0,Novel,no,1
10,2,49,p,0.6876628749996598,3,131,0,Novel,no,1
10,2,50,p,0.5033720409992384,3,78,0,Novel,no,1
10,2,51,p,0.5409496669999498,2,28,0,Novel,no,1
10,2,52,p,0.6020007079987408,2,4,0,Novel,no,1
10,2,53,q,0.7761406669997086,3,57,1,Famous,no,1
10,2,54,p,0.5633254999993369,1,61,0,Novel,no,1
10,2,55,q,0.694291500001782,3,34,1,Famous,no,1
10,2,56,q,0.630767458000264,2,60,1,Famous,no,1
10,2,57,q,0.704590957999244,2,55,1,Famous,no,1
10,2,58,q,0.698136582999723,3,59,1,Famous,no,1
10,2,59,q,0.7599127079993195,1,42,1,Famous,no,1
10,2,60,q,0.6219377079996775,2,38,1,Famous,no,1
10,3,1,q,0.6994009999998525,1,58,1,Famous,no,1
10,3,2,p,0.5430789580004785,2,18,0,Novel,no,1
10,3,3,q,0.7062447499993141,2,21,1,Famous,no,1
10,3,4,p,0.7633987500012154,1,111,0,Novel,no,1
10,3,5,q,0.7643137920003937,1,47,1,Famous,no,1
10,3,6,p,0.6842850419998285,1,17,0,Novel,no,1
10,3,7,p,0.6683604999998352,2,64,0,Novel,no,1
10,3,8,p,0.5405952500004787,1,51,0,Novel,no,1
10,3,9,q,0.6044550000005984,2,1,1,Famous,no,1
10,3,10,p,0.6808225420008966,1,94,0,Novel,no,1
10,3,11,q,0.6207917920000909,1,26,1,Famous,no,1
10,3,12,q,0.6956984169992211,3,60,1,Famous,no,1
10,3,13,q,0.863574625000183,2,13,1,Famous,no,1
10,3,14,q,0.697262583000338,2,34,1,Famous,no,1
10,3,15,q,0.7841845840011956,3,50,1,Famous,no,1
10,3,17,p,0.6974977500012756,2,77,0,Novel,no,1
10,3,18,p,0.6737424170005397,2,102,0,Novel,no,1
10,3,19,p,0.6460568749989761,3,75,0,Novel,no,1
10,3,20,p,0.763662999999724,3,109,0,Novel,no,1
10,3,21,q,0.7823112910009513,3,37,1,Famous,no,1
10,3,22,p,0.7451875840015418,1,66,0,Novel,no,1
10,3,23,p,0.5864201669992326,3,70,0,Novel,no,1
10,3,24,p,0.5375412499997765,3,41,0,Novel,no,1
10,3,25,q,0.7022550420006155,2,59,1,Famous,no,1
10,3,26,p,0.8382070419993397,3,116,0,Novel,no,1
10,3,27,p,0.5934259999994538,1,42,0,Novel,no,1
10,3,28,p,0.6131121670005086,3,140,0,Novel,no,1
10,3,29,p,0.6901245839999319,3,148,0,Novel,no,1
10,3,30,p,0.6306331249998038,2,33,1,Famous,no,0
10,3,31,p,0.5888127920006809,2,21,0,Novel,no,1
10,3,32,p,0.5391262909997749,3,43,0,Novel,no,1
10,3,33,q,0.6263771249996353,2,36,1,Famous,no,1
10,3,34,q,0.701580124999964,3,19,1,Famous,no,1
10,3,35,p,0.760202333000052,3,124,0,Novel,no,1
10,3,36,q,0.6178559159998258,3,35,1,Famous,no,1
10,3,37,p,0.8025713749993884,1,69,0,Novel,no,1
10,3,38,p,0.5982380410005135,1,73,0,Novel,no,1
10,3,39,p,0.6110797500004992,1,125,0,Novel,no,1
10,3,40,p,0.6120841250012745,2,150,0,Novel,no,1
10,3,41,p,0.4575706669984356,3,84,0,Novel,no,1
10,3,42,q,0.7009498749994236,1,38,1,Famous,no,1
10,3,43,p,0.555795666999984,2,44,0,Novel,no,1
10,3,44,p,0.5531947079998645,1,57,1,Famous,no,0
10,3,45,q,0.7065331670000887,3,14,1,Famous,no,1
10,3,46,q,0.7672325000003184,1,29,1,Famous,no,1
10,3,47,p,0.757940833000248,2,108,0,Novel,no,1
10,3,48,q,0.7043488339986652,3,42,1,Famous,no,1
10,3,49,p,0.7286427079998248,2,26,0,Novel,no,1
10,3,50,p,0.7714812079993862,2,22,0,Novel,no,1
10,3,51,p,0.6827429589993699,1,105,0,Novel,no,1
10,3,52,q,0.7001716249997116,2,12,1,Famous,no,1
10,3,53,q,0.6959771670008195,3,20,1,Famous,no,1
10,3,54,q,0.6226289590013039,2,23,1,Famous,no,1
10,3,55,q,0.8630499159989995,2,28,1,Famous,no,1
10,3,56,q,0.6955332910001744,1,27,1,Famous,no,1
10,3,57,q,0.6245826249996753,1,3,1,Famous,no,1
10,3,58,q,0.6235302499990212,1,30,1,Famous,no,1
10,3,59,q,0.689565250000669,3,54,1,Famous,no,1
10,3,60,q,0.6137101670010452,2,8,1,Famous,no,1
11,1,1,p,0.8465159170009429,1,153,0,Novel,no,1
11,1,2,q,0.6957591250011319,2,17,1,Famous,no,1
11,1,3,p,0.5341340840004705,1,53,1,Famous,no,0
11,1,4,q,0.6206497080002009,1,14,1,Famous,no,1
11,1,5,q,0.6077266669999517,2,120,0,Novel,no,0
11,1,6,p,0.4529652909986907,3,92,0,Novel,no,1
11,1,7,q,0.7816955420003069,1,37,1,Famous,no,1
11,1,8,q,0.7051612079994811,3,26,1,Famous,no,1
11,1,10,q,0.5002211660012108,1,25,0,Novel,no,0
11,1,11,p,0.49223875000097905,2,30,0,Novel,no,1
11,1,12,p,0.6330786670005182,2,28,0,Novel,no,1
11,1,13,q,0.6236873329999071,3,52,1,Famous,no,1
11,1,14,p,0.5465092499998718,1,20,1,Famous,no,0
11,1,15,q,0.5440456249998533,3,94,0,Novel,no,0
11,1,16,p,0.49307512499945005,1,84,0,Novel,no,1
11,1,17,p,0.5353743329997087,2,11,0,Novel,no,1
11,1,18,p,0.5853135420002218,2,38,0,Novel,no,1
11,1,19,p,0.5388702500004001,3,148,0,Novel,no,1
11,1,20,p,0.4700710419983807,3,32,1,Famous,no,0
11,1,21,p,0.5007927499991638,2,87,0,Novel,no,1
11,1,22,p,0.6219904580011644,1,54,1,Famous,no,0
11,1,23,q,0.7104240420012502,2,60,1,Famous,no,1
11,1,24,p,0.7682588749994466,2,122,0,Novel,no,1
11,1,25,q,0.619177167000089,1,23,1,Famous,no,1
11,1,26,p,0.7589161670002795,1,145,0,Novel,no,1
11,1,27,q,0.5668923749999522,1,56,0,Novel,no,0
11,1,28,p,0.6929973750011413,2,125,0,Novel,no,1
11,1,29,p,0.5484670419991744,2,36,1,Famous,no,0
11,1,30,q,0.5657818340005178,3,77,0,Novel,no,0
11,1,31,p,0.4582119580009021,2,61,0,Novel,no,1
11,1,32,p,0.6906534170011582,3,45,1,Famous,no,0
11,1,33,p,0.5471720829991682,1,23,0,Novel,no,1
11,1,34,q,0.6220964580006694,2,5,1,Famous,no,1
11,1,35,q,0.6957397500009392,2,76,0,Novel,no,0
11,1,36,q,0.8510533329990722,1,28,1,Famous,no,1
11,1,37,p,0.7640639580004063,3,126,0,Novel,no,1
11,1,38,p,0.7268371669997578,1,19,0,Novel,no,1
11,1,39,p,0.6246597500012285,2,97,0,Novel,no,1
11,1,40,q,0.6940333330003341,3,35,1,Famous,no,1
11,1,41,p,0.5913354589993105,2,4,0,Novel,no,1
11,1,42,q,0.6918269159996271,2,58,1,Famous,no,1
11,1,43,p,0.629472792001252,2,3,1,Famous,no,0
11,1,44,q,0.6983804589999636,3,48,1,Famous,no,1
11,1,45,q,0.8648803750002116,2,39,1,Famous,no,1
11,1,46,p,0.6498287080012233,1,100,0,Novel,no,1
11,1,47,q,0.6184277089996613,1,119,0,Novel,no,0
11,1,48,p,0.6139172080002027,1,151,0,Novel,no,1
11,1,49,q,0.7456988750000164,2,1,0,Novel,no,0
11,1,50,q,0.7909729590010102,1,24,1,Famous,no,1
11,1,51,p,0.7414342499996565,2,22,0,Novel,no,1
11,1,52,q,0.704609791000621,3,29,1,Famous,no,1
11,1,53,q,0.7857585830006428,1,11,1,Famous,no,1
11,1,54,q,0.6917406659995322,2,16,1,Famous,no,1
11,1,55,q,0.6933797080000659,2,9,1,Famous,no,1
11,1,56,q,0.5455600829991454,1,18,1,Famous,no,1
11,1,57,q,0.6270510000013019,1,10,1,Famous,no,1
11,1,58,q,0.628706167000928,1,21,1,Famous,no,1
11,1,59,q,0.6215973329999542,1,12,1,Famous,no,1
11,1,60,q,0.5992582079998101,2,1,1,Famous,no,1
11,2,1,q,0.7552972089997638,1,20,0,Novel,no,0
11,2,2,q,0.5530310829999507,2,21,1,Famous,no,1
11,2,3,q,0.7059055829995486,3,24,1,Famous,no,1
11,2,4,q,0.60881425000116,2,107,0,Novel,no,0
11,2,5,p,0.6414109580000513,1,95,0,Novel,no,1
11,2,7,p,0.8383714589999727,3,139,0,Novel,no,1
11,2,8,q,0.7606124169997202,1,29,1,Famous,no,1
11,2,9,q,0.706986417000735,1,45,1,Famous,no,1
11,2,10,q,0.7577794159988116,2,150,0,Novel,no,0
11,2,11,q,0.5576080830014689,1,43,0,Novel,no,0
11,2,12,p,0.6163745419999032,1,1,1,Famous,no,0
11,2,15,q,0.7836370000004536,2,26,1,Famous,no,1
11,2,16,q,0.6351408749997063,3,18,0,Novel,no,0
11,2,17,q,0.6419762909990823,3,60,0,Novel,no,0
11,2,19,q,0.8617990839993581,2,37,1,Famous,no,1
11,2,20,q,0.6950935830009257,2,10,1,Famous,no,1
11,2,21,q,0.6216413330002979,2,53,1,Famous,no,1
11,2,22,q,0.6976356670002133,3,11,1,Famous,no,1
11,2,23,q,0.5580201249995298,2,68,0,Novel,no,0
11,2,24,q,0.5536154999990686,1,17,1,Famous,no,1
11,2,25,q,0.5280110829990008,3,69,0,Novel,no,0
11,2,26,q,0.5430876250011352,3,152,0,Novel,no,0
11,2,27,q,0.7063345420010592,2,20,1,Famous,no,1
11,2,28,q,0.5468614170004003,3,12,1,Famous,no,1
11,2,29,q,0.6404504170004657,3,81,0,Novel,no,0
11,2,30,q,0.5384017920005135,3,36,1,Famous,no,1
11,2,31,q,0.585636458999943,2,37,0,Novel,no,0
11,2,32,q,0.6493700000009994,1,33,0,Novel,no,0
11,2,33,q,0.5417673330011894,2,48,1,Famous,no,1
11,2,34,q,0.5393989160002093,3,14,1,Famous,no,1
11,2,35,p,0.7626460419996874,2,135,0,Novel,no,1
11,2,36,q,0.5453116669996234,1,39,1,Famous,no,1
11,2,37,q,0.6262845830005972,2,32,1,Famous,no,1
11,2,38,q,0.5846013749996928,3,12,0,Novel,no,0
11,2,39,q,0.601057125000807,2,71,0,Novel,no,0
11,2,40,p,0.7646419590000733,1,130,0,Novel,no,1
11,2,41,p,0.5603445829983684,1,101,0,Novel,no,1
11,2,42,q,0.7329163749982399,2,79,0,Novel,no,0
11,2,43,q,0.738897667000856,2,57,0,Novel,no,0
11,2,44,q,0.689933709001707,2,53,0,Novel,no,0
11,2,45,q,0.7802527910007484,2,18,1,Famous,no,1
11,2,46,q,0.6981869580013154,3,28,1,Famous,no,1
11,2,47,q,0.7668974999996863,1,60,1,Famous,no,1
11,2,48,q,0.6258730000008654,3,16,1,Famous,no,1
11,2,49,p,0.7953262910014018,3,67,0,Novel,no,1
11,2,50,q,0.7011546249996172,1,5,1,Famous,no,1
11,2,51,q,0.8571307500005787,1,35,1,Famous,no,1
11,2,52,q,0.6071404999984225,2,109,0,Novel,no,0
11,2,53,q,0.6392824169997766,2,90,0,Novel,no,0
11,2,54,q,0.8686209170009533,2,54,1,Famous,no,1
11,2,55,q,0.6770487079993472,3,9,1,Famous,no,1
11,2,56,p,0.7864906249997148,1,78,0,Novel,no,1
11,2,57,q,0.6217955419997452,1,52,1,Famous,no,1
11,2,58,q,0.8583427499997924,1,58,1,Famous,no,1
11,2,59,q,0.6286878749997413,2,23,1,Famous,no,1
11,2,60,q,0.6860720839995338,3,134,0,Novel,no,0
11,3,1,q,0.6966613749991666,1,48,1,Famous,no,1
11,3,3,q,0.781277083000532,2,29,1,Famous,no,1
11,3,5,q,0.701044292000006,3,39,1,Famous,no,1
11,3,6,q,0.7825393330003863,3,1,1,Famous,no,1
11,3,7,p,0.6985564160004287,1,16,1,Famous,no,0
11,3,8,q,0.6708007079996605,3,23,1,Famous,no,1
11,3,9,q,0.768146832999264,1,89,0,Novel,no,0
11,3,10,q,0.6157703750013752,3,54,1,Famous,no,1
11,3,11,p,0.5494862499999726,2,45,1,Famous,no,0
11,3,12,q,0.7651283750001312,1,9,1,Famous,no,1
11,3,13,q,0.5400578749995475,3,60,1,Famous,no,1
11,3,14,q,0.6970320000000356,1,26,1,Famous,no,1
11,3,15,q,0.5992889580011251,2,35,1,Famous,no,1
11,3,16,p,0.5130959170001006,3,64,0,Novel,no,1
11,3,17,q,0.3991401249986666,1,7,0,Novel,no,0
11,3,19,q,0.60194091700032,3,74,0,Novel,no,0
11,3,20,p,0.4976016669988894,2,42,0,Novel,no,1
11,3,21,p,0.5428925420001178,2,142,0,Novel,no,1
11,3,22,q,0.7011316669995722,3,53,1,Famous,no,1
11,3,23,p,0.4675999579994823,3,3,1,Famous,no,0
11,3,25,q,0.4217486249999638,1,82,0,Novel,no,0
11,3,26,p,0.6325128749995201,2,24,1,Famous,no,0
11,3,27,q,0.5497218750006141,2,12,1,Famous,no,1
11,3,28,q,0.4686053339992214,3,18,1,Famous,no,1
11,3,29,q,0.4785811249985272,2,14,1,Famous,no,1
11,3,30,q,0.4748682919998828,2,28,1,Famous,no,1
11,3,31,p,0.6052517909993185,3,147,0,Novel,no,1
11,3,32,p,0.4669555830005266,2,11,1,Famous,no,0
11,3,33,q,0.4244885830012208,1,45,0,Novel,no,0
11,3,34,p,0.5346967500008759,2,136,0,Novel,no,1
11,3,35,p,0.4061267910001334,3,27,0,Novel,no,1
11,3,36,p,0.44861916700028814,3,49,0,Novel,no,1
11,3,37,p,0.5347026250001363,3,140,0,Novel,no,1
11,3,38,p,0.4146333330008929,2,80,0,Novel,no,1
11,3,39,p,0.47309204200064414,3,5,1,Famous,no,0
11,3,40,p,0.5388770419995126,3,144,0,Novel,no,1
11,3,41,p,0.4609247080006753,2,132,0,Novel,no,1
11,3,42,p,0.7813571250007953,1,32,1,Famous,no,0
11,3,43,q,0.460883207999359,2,10,0,Novel,no,0
11,3,44,p,0.45432283300033305,3,17,0,Novel,no,1
11,3,45,p,0.5549299169997539,3,37,1,Famous,no,0
11,3,46,p,0.757647291999092,2,36,0,Novel,no,1
11,3,48,p,0.6926189580008213,2,116,0,Novel,no,1
11,3,49,q,0.6989933330005442,3,20,1,Famous,no,1
11,3,50,p,0.45630741700006183,2,52,1,Famous,no,0
11,3,51,q,0.5464014579993091,3,21,1,Famous,no,1
11,3,52,p,0.7951810409995232,1,91,0,Novel,no,1
11,3,53,q,0.5563788329982344,3,17,1,Famous,no,1
11,3,54,p,0.5325682909988245,1,124,0,Novel,no,1
11,3,55,p,0.4527354580004612,2,93,0,Novel,no,1
11,3,56,p,0.4452276669999264,1,50,0,Novel,no,1
11,3,57,p,0.6191200829998706,1,36,1,Famous,no,0
11,3,58,p,0.45837458399910247,2,14,0,Novel,no,1
11,3,59,p,0.6147774159999244,3,141,0,Novel,no,1
11,3,60,q,0.6452465410002333,3,66,0,Novel,no,0
12,1,1,q,0.7170281250000698,1,71,0,Novel,no,0
12,1,2,p,0.3911939169993275,2,43,0,Novel,no,1
12,1,3,p,0.5357811659996514,3,77,0,Novel,no,1
12,1,4,q,0.6721055409998371,1,111,0,Novel,no,0
12,1,5,p,0.7075155419988732,2,60,1,Famous,no,0
12,1,7,q,0.8447664579998673,2,17,1,Famous,no,1
12,1,8,p,0.7548562920001132,1,106,0,Novel,no,1
12,1,9,p,0.7068342089987709,1,51,1,Famous,no,0
12,1,10,q,0.7757547089986474,3,24,1,Famous,no,1
12,1,11,p,0.6282572090003669,2,39,1,Famous,no,0
12,1,12,p,0.6180909170016093,1,33,0,Novel,no,1
12,1,13,p,0.6338245000006282,2,36,1,Famous,no,0
12,1,14,p,0.6991502500004572,3,20,1,Famous,no,0
12,1,15,p,0.6882340830015892,1,32,0,Novel,no,1
12,1,16,p,0.6941964999987249,1,104,0,Novel,no,1
12,1,17,p,0.684544707999521,1,146,0,Novel,no,1
12,1,18,p,0.8625731659994926,3,50,1,Famous,no,0
12,1,19,q,0.8578087920013786,2,59,1,Famous,no,1
12,1,20,p,0.7792637499987904,3,42,1,Famous,no,0
12,1,22,p,0.6710448750000069,2,75,0,Novel,no,1
12,1,23,p,0.7799025410004106,2,53,1,Famous,no,0
12,1,24,p,0.708966041000167,2,21,1,Famous,no,0
12,1,26,q,0.8543786249992991,3,32,1,Famous,no,1
12,1,27,p,0.6009904160000588,3,62,0,Novel,no,1
12,1,28,p,0.6986899999992602,1,46,1,Famous,no,0
12,1,29,q,0.8275168750005832,2,35,1,Famous,no,1
12,1,30,p,0.6974702919997071,2,55,1,Famous,no,0
12,1,31,p,0.7196123329995316,2,78,0,Novel,no,1
12,1,33,p,0.786326082999949,3,19,1,Famous,no,0
12,1,35,p,0.8576121250007418,3,1,1,Famous,no,0
12,1,36,p,0.8277826249995996,3,61,0,Novel,no,1
12,1,37,p,0.702291375000641,2,34,1,Famous,no,0
12,1,38,p,0.7661618330002966,1,136,0,Novel,no,1
12,1,39,q,0.7531049169992912,1,5,1,Famous,no,1
12,1,40,p,0.7659501669986639,1,109,0,Novel,no,1
12,1,42,p,0.6913825419997011,3,29,1,Famous,no,0
12,1,43,p,0.7016550000007555,1,13,1,Famous,no,0
12,1,44,p,0.5462640830010059,3,64,0,Novel,no,1
12,1,45,p,0.6829750409997359,3,69,0,Novel,no,1
12,1,46,p,0.6208615409996128,1,4,1,Famous,no,0
12,1,47,p,0.6468325830010144,2,49,0,Novel,no,1
12,1,48,p,0.6843165840000438,2,143,0,Novel,no,1
12,1,49,p,0.6141027499998017,2,119,0,Novel,no,1
12,1,50,p,0.6147630420000496,2,58,1,Famous,no,0
12,1,51,p,0.6090698330008308,3,153,0,Novel,no,1
12,1,52,p,0.5559609590000036,1,56,0,Novel,no,1
12,1,53,p,0.5392867919999844,3,47,0,Novel,no,1
12,1,54,p,0.4956144999996468,1,17,0,Novel,no,1
12,1,55,p,0.5286650409998401,2,74,0,Novel,no,1
12,1,56,p,0.5433384999996633,2,16,0,Novel,no,1
12,1,57,p,0.6352235419999488,1,101,0,Novel,no,1
12,1,58,p,0.4893095419993187,2,70,0,Novel,no,1
12,1,59,p,0.6689515840007516,2,152,0,Novel,no,1
12,1,60,p,0.5350307920016348,3,67,0,Novel,no,1
12,2,1,p,0.7105550420001236,2,10,0,Novel,no,1
12,2,2,p,0.62246899999991,3,46,1,Famous,no,0
12,2,3,p,0.6076643750002404,3,150,0,Novel,no,1
12,2,5,p,0.539633500000491,3,13,0,Novel,no,1
12,2,6,p,0.7814912080011709,3,55,1,Famous,no,0
12,2,7,p,0.5424230839998927,3,2,0,Novel,no,1
12,2,8,p,0.6126789169993572,1,36,1,Famous,no,0
12,2,9,p,0.6276092919997609,2,50,1,Famous,no,0
12,2,10,p,0.6179603339987807,3,22,1,Famous,no,0
12,2,11,q,0.6442438750000292,3,57,0,Novel,no,0
12,2,12,q,0.8318255829999543,3,23,1,Famous,no,1
12,2,13,p,0.6106663749997097,1,142,0,Novel,no,1
12,2,14,p,0.6317854999997508,2,32,1,Famous,no,0
12,2,16,p,0.6425118339993787,3,98,0,Novel,no,1
12,2,17,p,0.5460628330001782,1,19,1,Famous,no,0
12,2,18,p,0.60691091700027755,1,11,0,Novel,no,1
12,2,19,p,0.6152965000001132,3,113,0,Novel,no,1
12,2,20,p,0.5484644159987511,3,53,1,Famous,no,0
12,2,21,p,0.7079958329995861,2,4,1,Famous,no,0
12,2,22,p,0.6962320419988828,2,29,1,Famous,no,0
12,2,23,p,0.6457336669991491,3,76,0,Novel,no,1
12,2,24,p,0.5821132500004751,1,21,0,Novel,no,1
12,2,25,p,0.6638357909996557,3,87,0,Novel,no,1
12,2,26,p,0.6123790830006328,1,1,1,Famous,no,0
12,2,27,p,0.7037465410012373,2,25,1,Famous,no,0
12,2,28,p,0.7613727909993031,3,112,0,Novel,no,1
12,2,29,p,0.6850825410001562,3,117,0,Novel,no,1
12,2,30,q,0.8616212500000984,1,24,1,Famous,no,1
12,2,31,p,0.6982814160000999,3,60,1,Famous,no,0
12,2,32,p,0.85990133300038,1,20,1,Famous,no,0
12,2,33,p,0.6937375410016102,1,97,0,Novel,no,1
12,2,34,q,0.8607103750000533,3,59,1,Famous,no,1
12,2,35,p,0.5961469579997356,3,23,0,Novel,no,1
12,2,36,p,0.4961923339997156,2,4,0,Novel,no,1
12,2,37,p,0.6898723329995846,1,118,0,Novel,no,1
12,2,38,q,0.7822140000007494,3,17,1,Famous,no,1
12,2,39,p,0.7066085419992305,1,3,1,Famous,no,0
12,2,40,p,0.4921906669987948,2,79,0,Novel,no,1
12,2,41,p,0.5396127499989234,2,7,0,Novel,no,1
12,2,42,p,0.6878971249989263,3,135,0,Novel,no,1
12,2,43,q,0.8473577500008105,2,5,1,Famous,no,1
12,2,44,p,0.6186635829999432,3,49,1,Famous,no,0
12,2,45,p,0.588429333998647,2,22,0,Novel,no,1
12,2,46,p,0.6287391669993667,3,13,1,Famous,no,0
12,2,47,p,0.4973874999996042,1,51,0,Novel,no,1
12,2,48,q,0.7023625419988093,2,27,1,Famous,no,1
12,2,49,p,0.779281416998856,3,21,1,Famous,no,0
12,2,50,p,0.6873930410001776,2,131,0,Novel,no,1
12,2,51,p,0.6186915839989524,1,39,1,Famous,no,0
12,2,52,p,0.6024790840001515,3,28,0,Novel,no,1
12,2,53,p,0.6155784999991738,3,51,1,Famous,no,0
12,2,54,p,0.7604593340001884,1,139,0,Novel,no,1
12,2,55,p,0.6055814579995058,1,72,0,Novel,no,1
12,2,56,p,0.6789567920004629,1,29,0,Novel,no,1
12,2,57,p,0.5386413750002248,3,82,0,Novel,no,1
12,2,58,p,0.7723022919999494,3,34,1,Famous,no,0
12,2,59,p,0.6925146249996033,3,35,1,Famous,no,0
12,2,60,p,0.7646994169990649,1,42,1,Famous,no,0
12,3,3,p,0.6276219999999739,1,21,1,Famous,no,0
12,3,4,p,0.6760243329990772,1,130,0,Novel,no,1
12,3,5,p,0.5389007499998115,1,30,0,Novel,no,1
12,3,6,p,0.5348504579997098,2,37,0,Novel,no,1
12,3,7,p,0.49000429100124165,2,68,0,Novel,no,1
12,3,8,p,0.48497854199922585,2,83,0,Novel,no,1
12,3,9,p,0.6168098750003992,2,53,0,Novel,no,1
12,3,10,p,0.8400604170001316,2,110,0,Novel,no,1
12,3,11,q,0.7689251669999067,3,27,1,Famous,no,1
12,3,12,p,0.6455001670001366,3,12,0,Novel,no,1
12,3,13,p,0.6235529580008006,1,32,1,Famous,no,0
12,3,14,p,0.6964454160006426,1,50,1,Famous,no,0
12,3,15,p,0.5339129170006345,2,134,0,Novel,no,1
12,3,16,p,0.4956057499985036,2,81,0,Novel,no,1
12,3,18,p,0.7652943749999395,3,123,0,Novel,no,1
12,3,19,p,0.6204657090002001,1,58,1,Famous,no,0
12,3,20,p,0.555385457999364,1,41,0,Novel,no,1
12,3,21,p,0.5433067089998076,1,93,0,Novel,no,1
12,3,22,p,0.5542331249998824,1,17,1,Famous,no,0
12,3,23,q,0.7798101250009495,1,35,1,Famous,no,1
12,3,24,p,0.5511804170000687,3,100,0,Novel,no,1
12,3,25,q,0.788496084000144,2,3,1,Famous,no,1
12,3,27,p,0.7794362500007992,2,20,1,Famous,no,0
12,3,28,p,0.8376994999998715,1,25,1,Famous,no,0
12,3,30,p,0.7182722500001546,2,95,0,Novel,no,1
12,3,31,p,0.6689429999987624,1,89,0,Novel,no,1
12,3,32,p,0.6828692499984754,3,128,0,Novel,no,1
12,3,33,p,0.6720123750001221,2,94,0,Novel,no,1
12,3,34,p,0.689551624998785,1,29,1,Famous,no,0
12,3,35,p,0.6069224580005539,3,9,0,Novel,no,1
12,3,36,q,0.7030139170001348,3,5,1,Famous,no,1
12,3,37,p,0.548147292000067,1,60,0,Novel,no,1
12,3,38,p,0.6850219160005508,1,125,0,Novel,no,1
12,3,39,p,0.6942143339983886,3,4,1,Famous,no,0
12,3,40,p,0.7053688750002038,2,19,1,Famous,no,0
12,3,41,p,0.6978222920006374,1,55,1,Famous,no,0
12,3,42,p,0.6537051249997603,2,44,0,Novel,no,1
12,3,43,q,0.7898748329989758,2,23,1,Famous,no,1
12,3,44,p,0.5527017909989809,3,45,0,Novel,no,1
12,3,45,p,0.611147167001036,2,124,0,Novel,no,1
12,3,46,p,0.6381970410002396,3,27,0,Novel,no,1
12,3,47,p,0.6253812920003838,1,34,1,Famous,no,0
12,3,48,p,0.6088998750001338,2,132,0,Novel,no,1
12,3,49,p,0.6183048329985468,2,42,1,Famous,no,0
12,3,50,p,0.8551779999997962,2,46,1,Famous,no,0
12,3,51,q,0.8274026249982853,2,1,1,Famous,no,1
12,3,52,p,0.6911744999997609,3,36,0,Novel,no,1
12,3,53,p,0.5845547080007236,1,59,1,Famous,no,0
12,3,54,p,0.6379888749997917,3,25,0,Novel,no,1
12,3,55,p,0.6859884580007929,2,126,0,Novel,no,1
12,3,56,p,0.5396999579988915,1,53,1,Famous,no,0
12,3,57,p,0.754320000000007,1,108,0,Novel,no,1
12,3,58,p,0.8613188749986875,2,22,1,Famous,no,0
12,3,60,q,0.7068834580004477,2,24,1,Famous,no,1
13,1,1,p,0.7606382920002943,3,17,0,Novel,no,1
13,1,3,q,0.8427548750000824,3,54,1,Famous,no,1
13,1,4,p,0.7410816249998788,3,10,0,Novel,no,1
13,1,5,p,0.767068417000246,3,104,0,Novel,no,1
13,1,6,p,0.6045194580001407,1,22,0,Novel,no,1
13,1,7,p,0.7121132500001295,3,81,0,Novel,no,1
13,1,8,q,0.7734693329998663,3,58,1,Famous,no,1
13,1,9,p,0.550859292000041,3,57,0,Novel,no,1
13,1,10,p,0.6872511249998752,1,13,0,Novel,no,1
13,1,11,q,0.7086282079999364,1,3,1,Famous,no,1
13,1,12,p,0.4631777919998967,2,5,1,Famous,no,0
13,1,13,q,0.6002857499997845,3,20,0,Novel,no,0
13,1,14,q,0.7024107500001264,1,31,1,Famous,no,1
13,1,15,p,0.667104291999749,3,130,0,Novel,no,1
13,1,16,p,0.7633650420002596,3,120,0,Novel,no,1
13,1,17,p,0.781765790999998,2,23,1,Famous,no,0
13,1,20,p,0.7793992079996315,1,33,1,Famous,no,0
13,1,23,p,0.762279000000035,3,9,1,Famous,no,0
13,1,24,p,0.5943429169997216,2,80,0,Novel,no,1
13,1,25,q,0.6854564169998412,2,35,1,Famous,no,1
13,1,27,p,0.64664700000003,3,33,0,Novel,no,1
13,1,28,p,0.6109823329998108,3,131,0,Novel,no,1
13,1,29,p,0.609248999999636,2,107,0,Novel,no,1
13,1,30,p,0.6138147080000635,1,1,1,Famous,no,0
13,1,31,p,0.6075557499998467,2,142,0,Novel,no,1
13,1,32,q,0.7719828750000488,3,52,1,Famous,no,1
13,1,33,p,0.4987782499997593,1,84,0,Novel,no,1
13,1,34,p,0.6239076249999016,2,92,0,Novel,no,1
13,1,35,q,0.7825380829999631,1,12,1,Famous,no,1
13,1,36,p,0.6294252920001782,2,27,1,Famous,no,0
13,1,37,p,0.7015146249996178,3,6,1,Famous,no,0
13,1,38,q,0.7776918330000626,3,14,1,Famous,no,1
13,1,40,p,0.6807725409998966,1,26,0,Novel,no,1
13,1,41,p,0.8400976249999985,2,144,0,Novel,no,1
13,1,42,p,0.7004983339998034,3,20,1,Famous,no,0
13,1,43,p,0.6099183329997686,1,150,0,Novel,no,1
13,1,44,q,0.7065100410000014,2,38,1,Famous,no,1
13,1,45,p,0.6414223339997989,1,27,0,Novel,no,1
13,1,46,p,0.6102718329998424,3,147,0,Novel,no,1
13,1,47,p,0.4997428750002655,1,38,0,Novel,no,1
13,1,48,q,0.7067830830001185,2,55,1,Famous,no,1
13,1,49,p,0.5975144169997293,2,56,0,Novel,no,1
13,1,50,q,0.8550349580000329,1,39,1,Famous,no,1
13,1,51,q,0.7766852080003446,1,46,1,Famous,no,1
13,1,52,p,0.6832406250000531,3,89,0,Novel,no,1
13,1,53,p,0.6268879580002249,3,102,0,Novel,no,1
13,1,54,q,0.7803897499998129,2,30,1,Famous,no,1
13,1,55,q,0.7823069580003903,3,13,1,Famous,no,1
13,1,56,p,0.619064083000012,1,26,1,Famous,no,0
13,1,57,q,0.8595393330001571,1,24,1,Famous,no,1
13,1,59,q,0.8377552499996455,3,45,1,Famous,no,1
13,1,60,p,0.8376040420002937,1,29,1,Famous,no,0
13,2,1,p,0.7846206670001266,3,94,0,Novel,no,1
13,2,2,p,0.7515952909998305,3,14,0,Novel,no,1
13,2,3,q,0.5878419590003432,2,77,0,Novel,no,0
13,2,4,p,0.462779583000156,2,152,0,Novel,no,1
13,2,5,q,0.7082723749999786,2,33,1,Famous,no,1
13,2,6,q,0.5437673749997884,1,35,1,Famous,no,1
13,2,7,p,0.6879827920001844,2,136,0,Novel,no,1
13,2,8,p,0.6867616250001447,1,25,1,Famous,no,0
13,2,9,q,0.6247252089997346,2,54,1,Famous,no,1
13,2,10,q,0.759319959000095,2,52,1,Famous,no,1
13,2,11,q,0.6195934999996098,1,6,1,Famous,no,1
13,2,12,p,0.7572223750003104,3,134,0,Novel,no,1
13,2,13,p,0.603348250000181,1,12,0,Novel,no,1
13,2,14,q,0.7860527909997472,2,14,1,Famous,no,1
13,2,15,q,0.7055048749998605,2,24,1,Famous,no,1
13,2,16,p,0.6831862079998245,3,4,0,Novel,no,1
13,2,17,q,0.632239667000249,2,36,1,Famous,no,1
13,2,18,q,0.7723712500001056,3,31,1,Famous,no,1
13,2,19,p,0.6404415000001791,1,67,0,Novel,no,1
13,2,20,q,0.7118440830004147,2,3,1,Famous,no,1
13,2,21,p,0.781908250000015,2,29,1,Famous,no,0
13,2,23,q,0.784268333,2,26,1,Famous,no,1
13,2,26,q,0.775001957999848,1,23,1,Famous,no,1
13,2,27,q,0.6969347079998442,3,5,1,Famous,no,1
13,2,28,q,0.6209064999998191,2,45,1,Famous,no,1
13,2,29,p,0.7015482910001083,3,36,0,Novel,no,1
13,2,30,q,0.6938265829999182,1,55,1,Famous,no,1
13,2,31,q,0.6925009169999612,3,27,1,Famous,no,1
13,2,32,p,0.7609111669999038,1,145,0,Novel,no,1
13,2,33,q,0.6314226670001517,2,2,0,Novel,no,0
13,2,35,p,0.6304268750000119,1,62,0,Novel,no,1
13,2,36,q,0.8553402919997097,3,30,1,Famous,no,1
13,2,37,p,0.5525795830003517,1,49,0,Novel,no,1
13,2,38,p,0.5805125829997451,1,87,0,Novel,no,1
13,2,39,p,0.576706583000032,3,59,0,Novel,no,1
13,2,40,q,0.8338352499999928,2,1,1,Famous,no,1
13,2,41,q,0.7776000829999248,3,46,1,Famous,no,1
13,2,42,p,0.6505867920000128,1,21,0,Novel,no,1
13,2,43,q,0.7742113330000393,2,58,1,Famous,no,1
13,2,44,p,0.6385202920000665,2,70,0,Novel,no,1
13,2,45,p,0.6100780830001895,2,129,0,Novel,no,1
13,2,46,p,0.5529206250002972,1,75,0,Novel,no,1
13,2,47,q,0.850488624999798,2,13,1,Famous,no,1
13,2,48,q,0.7860922079999,2,20,1,Famous,no,1
13,2,49,q,0.6933207919996676,3,38,1,Famous,no,1
13,2,50,p,0.7646429999999782,2,122,0,Novel,no,1
13,2,51,q,0.6214041250000264,3,39,1,Famous,no,1
13,2,52,q,0.7006407079998098,3,12,1,Famous,no,1
13,2,53,q,0.702957625000181,3,10,1,Famous,no,1
13,2,54,p,0.7650547500002176,3,148,0,Novel,no,1
13,2,55,p,0.8358382919996075,3,105,0,Novel,no,1
13,2,57,p,0.7138361250003982,2,98,0,Novel,no,1
13,2,58,p,0.7603879170001164,3,7,0,Novel,no,1
13,2,59,p,0.6872282500003166,2,126,0,Novel,no,1
13,2,60,p,0.6818679580001117,3,91,0,Novel,no,1
13,3,1,q,0.786930792000021,3,1,1,Famous,no,1
13,3,2,p,0.6853583749998506,1,117,0,Novel,no,1
13,3,3,p,0.6706100410001454,1,135,0,Novel,no,1
13,3,4,q,0.6942994159999216,1,54,1,Famous,no,1
13,3,5,q,0.7003593750000618,1,58,1,Famous,no,1
13,3,7,p,0.7613940829996864,2,125,0,Novel,no,1
13,3,8,q,0.6893639999998413,2,9,1,Famous,no,1
13,3,9,p,0.8073344579997865,2,23,0,Novel,no,1
13,3,10,p,0.761969040999702,2,68,0,Novel,no,1
13,3,11,p,0.6857447499996852,3,108,0,Novel,no,1
13,3,12,q,0.6964651670000421,3,55,1,Famous,no,1
13,3,13,q,0.695747959000073,2,12,1,Famous,no,1
13,3,14,p,0.6775730409999596,1,1,0,Novel,no,1
13,3,15,p,0.54327345899992,1,19,0,Novel,no,1
13,3,16,q,0.7511999580001429,3,23,1,Famous,no,1
13,3,17,p,0.583732874999896,2,41,0,Novel,no,1
13,3,18,q,0.781025290999878,2,59,1,Famous,no,1
13,3,19,q,0.6230422090002321,2,46,1,Famous,no,1
13,3,20,q,0.7043155000001207,2,31,1,Famous,no,1
13,3,21,q,0.697414082999785,1,5,1,Famous,no,1
13,3,22,q,0.6233608750003441,1,30,1,Famous,no,1
13,3,23,q,0.6178179590001491,1,52,1,Famous,no,1
13,3,24,p,0.7295785410001372,3,90,0,Novel,no,1
13,3,25,p,0.7650487910000265,2,112,0,Novel,no,1
13,3,26,q,0.7836779169997499,2,25,1,Famous,no,1
13,3,28,p,0.7404060419999041,3,9,0,Novel,no,1
13,3,29,q,0.6219978750000337,3,3,1,Famous,no,1
13,3,30,p,0.588679417000094,1,101,0,Novel,no,1
13,3,31,q,0.7073357079998459,1,13,1,Famous,no,1
13,3,32,q,0.6901535829997556,3,35,1,Famous,no,1
13,3,33,q,0.7024892079998608,1,38,1,Famous,no,1
13,3,34,q,0.6922255829999813,3,29,1,Famous,no,1
13,3,35,p,0.6867746659995646,2,141,0,Novel,no,1
13,3,36,p,0.7650676660000499,2,139,0,Novel,no,1
13,3,37,q,0.8476143329999104,3,26,1,Famous,no,1
13,3,38,p,0.6807640839997475,1,110,0,Novel,no,1
13,3,39,q,0.7767664590001004,1,14,1,Famous,no,1
13,3,40,q,0.6945854579998922,3,36,1,Famous,no,1
13,3,41,p,0.7823763750002399,2,66,0,Novel,no,1
13,3,42,p,0.7234619589999056,3,83,0,Novel,no,1
13,3,43,p,0.6818993329998193,1,30,0,Novel,no,1
13,3,44,p,0.6831866249999621,3,29,0,Novel,no,1
13,3,45,p,0.6623985840001296,2,79,0,Novel,no,1
13,3,46,p,0.5952363329997752,3,45,0,Novel,no,1
13,3,47,p,0.591108874999918,3,72,0,Novel,no,1
13,3,48,q,0.7847532920000049,1,45,1,Famous,no,1
13,3,49,q,0.7028912910000145,1,27,1,Famous,no,1
13,3,50,p,0.8403347919997941,1,115,0,Novel,no,1
13,3,51,q,0.7032411249997494,2,39,1,Famous,no,1
13,3,52,p,0.593894999999975,2,28,0,Novel,no,1
13,3,53,q,0.7126619170003323,2,95,0,Novel,no,0
13,3,54,p,0.5797704579999845,1,64,0,Novel,no,1
13,3,55,p,0.5356165829998645,2,16,0,Novel,no,1
13,3,56,q,0.7829062079999858,3,24,1,Famous,no,1
13,3,57,q,0.8616776250000839,3,33,1,Famous,no,1
13,3,58,q,0.6948193749999518,2,10,1,Famous,no,1
13,3,59,p,0.5956613749999633,1,97,0,Novel,no,1
13,3,60,p,0.6878245419998166,1,123,0,Novel,no,1
14,1,1,q,0.7890399580001031,3,13,1,Famous,no,1
14,1,2,q,0.7728958750003585,3,31,1,Famous,no,1
14,1,3,p,0.7582721670005412,1,107,0,Novel,no,1
14,1,4,p,0.7040483749997293,2,45,0,Novel,no,1
14,1,5,p,0.6883157090005625,2,76,0,Novel,no,1
14,1,6,q,0.8610196670006189,3,19,1,Famous,no,1
14,1,7,q,0.7724902909994853,3,48,1,Famous,no,1
14,1,8,p,0.8394634589994894,2,142,0,Novel,no,1
14,1,9,p,0.6873245839997253,3,94,0,Novel,no,1
